t_ms,ax,ay,az,gx,gy,gz,label
0,6.939535632324218,3.294140393066406,3.171312829589844,-28.372328244274808,9.130423664122137,20.69802671755725,0
25,6.209304125976561,3.65566484375,3.3867909790039064,-25.601335877862596,31.252561068702292,30.537721374045802,0
50,6.860526977539062,3.6436938354492185,3.221591064453125,-21.723473282442747,36.59607251908397,27.323980916030536,0
75,6.798277734375,3.0930274536132814,3.8009878662109373,-7.654770992366412,-14.495530534351145,15.285812977099237,0
100,6.671385046386718,2.420256787109375,3.7554980346679687,2.0017175572519084,-31.129118320610683,3.629324427480916,0
125,6.137478076171875,2.0515497314453124,3.872813916015625,7.787977099236641,-18.716904580152672,-2.653118320610687,0
150,6.00579698486328,2.1952018310546877,4.344471643066406,4.4902671755725185,3.9319503816793895,-2.866858778625954,0
175,6.283524377441405,2.0228193115234374,4.308558618164062,1.5131679389312978,6.6418740458015275,-0.4241106870229009,0
200,6.293101184082031,1.9078976318359373,4.466575927734374,0.09332061068702285,10.0998893129771,0.9041335877862595,0
225,6.352956225585937,1.9533874633789061,4.842465588378905,-3.647137404580153,7.565538167938932,0.8201641221374045,0
250,6.245217150878905,2.0323961181640624,5.074703149414062,-12.318893129770993,3.725843511450382,-2.8057900763358776,0
275,6.194938916015624,1.8264947753906249,5.067520544433593,-23.769274809160304,3.8861488549618324,-7.44701145038168,0
300,6.091988244628905,2.1401351928710937,5.034001721191406,-32.90667938931298,2.2372938931297712,-10.637851145038168,0
325,5.965095556640624,2.1664714111328127,4.957387268066405,-38.31889312977099,-0.28942366412213727,-12.882125954198473,0
350,5.5437160644531245,2.1449235961914064,4.8568307983398435,-44.63187022900763,3.0922557251908396,-16.179835877862597,0
375,5.5054088378906245,2.3532191406250003,4.768245336914062,-51.03645038167939,3.2143931297709925,-21.44701145038168,0
400,5.414429174804687,2.360401745605469,4.2965876098632805,-54.66240458015267,-6.869576335877863,-28.94319465648855,0
426,5.373727746582031,2.4058915771484375,3.8512661010742186,-53.921946564885495,-12.655835877862595,-37.355408396946565,0
451,5.385698754882811,2.379555358886719,3.020478125,-50.89904580152672,-4.58713358778626,-44.301973282442745,0
476,5.866933288574217,2.812905859375,2.8361245971679687,-45.8837786259542,15.237293893129772,-52.111133587786256,0
501,6.1614200927734375,3.397091064453125,2.637405859375,-31.288358778625952,16.802179389312975,-59.05769847328244,0
526,6.187756311035156,3.9238154296875,2.512907373046875,-12.616603053435115,14.28309541984733,-63.88212595419847,0
551,6.15902589111328,4.158447192382813,2.4769943481445313,4.116221374045802,31.138057251908396,-66.11876717557251,0
576,6.238034545898437,5.197530712890625,2.4195335083007814,19.467366412213742,74.4586679389313,-64.84395801526718,0
601,6.4056286621093745,5.489623315429688,3.0132955200195313,44.16202290076336,97.00065267175573,-52.668385496183205,0
626,7.2340224365234365,6.478428601074219,3.49931845703125,68.5895038167939,99.31362977099236,-35.72182061068702,0
651,7.301060083007811,7.074584814453125,4.303770214843749,84.14675572519083,100.79454580152672,-9.729454198473283,0
676,7.092764538574218,7.220631115722656,5.359613146972656,91.15438931297709,125.7792786259542,29.446118320610687,0
701,7.0616399169921875,6.332382299804688,6.38433145751953,86.91011450381679,181.18385877862596,77.27054580152672,0
726,7.827784448242187,7.651587414550781,7.768180017089843,82.62003816793893,180.91668320610688,121.67512595419848,0
751,7.267541259765625,6.8615008666992185,8.043513208007811,69.26125954198473,145.51973664122139,154.7285610687023,0
776,6.8772863891601554,5.6979188598632815,7.780151025390624,46.87958015267176,143.3441641221374,184.35451526717557,0
801,5.481466821289062,5.424979870605469,8.223078332519531,19.154389312977102,167.88614885496185,212.59115648854961,0
827,4.86376279296875,4.756997607421875,9.393842944335937,-1.9753816793893129,200.22966030534351,236.54535496183206,0
852,4.281971789550781,4.036342907714843,9.92774991455078,-19.754007633587786,202.00065267175572,251.02627099236642,0
877,2.962766674804687,3.9022676147460937,10.679529235839842,-36.37996183206107,194.84798091603054,251.02627099236642,0
902,1.7321470214843746,3.4760997192382814,11.407366540527343,-47.21965648854962,166.5884389312977,251.02627099236642,0
927,0.35548106689453096,2.915856530761719,11.855082250976562,-69.65477099236642,138.77164503816795,251.02627099236642,0
952,-1.0570979125976565,2.915856530761719,11.072178308105467,-115.73110687022901,145.83271374045802,251.02627099236642,0
977,-1.6412831176757816,2.762627624511719,12.336316784667968,-151.51736641221373,117.36706488549619,251.02627099236642,0
1002,-3.4153865478515626,0.0930927734375,11.144004357910156,-201.9448473282443,147.68004198473284,251.02627099236642,0
1027,-4.6651598144531246,1.1489357055664062,10.895007385253905,-243.77690839694657,111.3059961832061,223.83543129770993,0
1052,-5.697060729980469,-0.4360257934570313,9.853529663085936,-249.66240458015267,86.01591984732825,180.9194007633588,0
1077,-5.967605517578125,-0.4958808349609375,9.128086560058593,-249.66240458015267,62.51210305343511,135.15604198473284,0
1102,-6.362648791503906,-0.6706575561523438,7.686777160644531,-249.66240458015267,28.199125954198475,92.11024045801527,0
1127,-7.396943908691406,-2.930783923339843,6.705154479980468,-249.66240458015267,45.305996183206105,53.339248091603054,0
1152,-7.377790295410156,-1.2859673828125,5.64452314453125,-249.66240458015267,74.73347709923665,13.110240458015268,0
1177,-6.3171589599609375,-3.555670556640625,4.203213745117187,-249.66240458015267,26.45103435114504,-25.469912213740457,0
1202,-6.738538452148437,-3.960290637207031,2.4338987182617187,-249.66240458015267,4.634240458015267,-53.28670610687023,0
1228,-6.8007876953125,-4.9036060913085935,1.6988788085937498,-249.66240458015267,32.55790458015267,-78.8210572519084,0
1253,-5.294834851074219,-4.999374157714843,0.42037512207031247,-240.74637404580153,10.496835877862596,-99.63021755725191,0
1278,-4.59812216796875,-6.416741540527343,-0.4630852905273437,-211.2272900763359,-14.709270992366413,-120.40884351145039,0
1303,-4.90457998046875,-7.008109350585937,-1.5524470458984374,-189.6929389312977,2.3365305343511453,-139.25617175572518,0
1328,-4.085763012695312,-6.735170361328125,-2.0528351928710933,-169.6929389312977,44.7792786259542,-158.21037022900762,0
1353,-2.8958447875976563,-6.909947082519531,-3.2307824096679685,-130.37996183206107,30.54263740458015,-177.16456870229007,0
1378,-2.354755212402344,-6.4239241455078115,-4.126213830566407,-100.45629770992367,38.481568702290076,-194.56914885496184,0
1403,-1.358767321777344,-6.146196752929687,-4.3560571899414064,-75.59370229007634,62.244927480916026,-211.18746946564886,0
1428,-0.5710749755859377,-5.5045507080078115,-4.370422399902344,-54.044083969465646,87.82508015267176,-227.64548473282443,0
1453,0.5733534179687498,-4.52292802734375,-3.8939762695312496,-33.173854961832056,99.87088167938931,-242.3859427480916,0
1478,1.7752426513671873,-3.6442560180664056,-4.068752990722656,-15.547900763358777,87.47393511450382,-249.24090458015266,0
1503,2.2971786132812495,-2.7129115722656247,-4.152550048828125,-5.960114503816794,78.84798091603054,-249.24090458015266,0
1528,3.1255723876953123,-1.86057578125,-3.774266186523437,-4.9524809160305345,110.67240839694657,-249.24090458015266,0
1553,4.62673682861328,-0.491092431640625,-4.159732653808594,12.917748091603054,125.13042366412215,-249.24090458015266,0
1578,6.084805639648438,1.1393588989257812,-3.793419799804687,45.60477099236641,87.5731717557252,-249.24090458015266,0
1603,6.532521350097656,2.5710914916992187,-4.056781982421875,64.71164122137404,95.78691221374046,-249.24090458015266,0
1629,7.011361682128906,4.026766101074219,-3.7191995483398435,91.42156488549618,112.4586679389313,-249.24090458015266,0
1654,8.117482849121092,5.343577014160156,-3.7766603881835934,136.7956106870229,58.794545801526716,-249.24090458015266,0
1679,6.702509667968749,5.884666589355469,-4.171703662109375,163.3604961832061,60.00828625954198,-249.24090458015266,0
1704,7.415981762695311,8.293233459472654,-3.5539996337890623,195.54370229007634,88.8556145038168,-249.24090458015266,0
1729,8.285076965332031,10.641945288085935,-3.446260559082031,241.46736641221372,76.25256106870229,-243.63785114503816,0
1754,6.901228405761718,10.941220495605467,-4.095089208984375,250.6047709923664,77.00828625954199,-221.897393129771,0
1779,6.882074792480467,12.533364599609374,-3.8077850097656247,250.6047709923664,126.64187404580153,-198.56151526717557,0
1804,7.186138403320311,14.601954833984374,-3.324156274414062,250.6047709923664,126.33653053435116,-167.92792748091603,0
1829,6.403234460449219,13.977068200683592,-2.708846447753906,250.6047709923664,176.00065267175572,-127.30197328244273,0
1854,7.356126721191406,14.496609960937498,-1.1023371337890624,231.89484732824428,251.55027099236642,-55.439377862595414,0
1879,9.158960571289061,14.661809875488279,0.6597952880859375,173.0398854961832,251.55027099236642,34.03390458015267,0
1904,11.129388537597656,12.928407873535155,3.1689186279296875,120.68874045801526,251.55027099236642,124.03390458015268,0
1929,10.75589307861328,11.420060827636718,5.436227600097656,70.66583969465648,251.55027099236642,202.84306488549618,0
1954,9.223604016113281,9.083320007324218,7.236667248535156,20.459732824427483,251.55027099236642,251.02627099236642,0
1979,7.564422265624999,7.795239514160156,8.876695385742186,-24.50209923664122,251.55027099236642,251.02627099236642,0
2004,4.909252624511718,6.140846166992187,9.523129833984374,-84.65477099236642,251.55027099236642,251.02627099236642,0
2030,2.4982915527343748,4.333223913574218,10.01154697265625,-159.37232824427483,251.55027099236642,251.02627099236642,0
2055,2.005086010742187,3.5575025756835936,11.244560827636718,-226.8990458015267,251.55027099236642,251.02627099236642,0
2080,0.242953588867187,2.5950335083007814,10.593337976074217,-249.59370229007635,214.8403473282443,251.02627099236642,0
2105,-2.431369665527344,0.48095344238281246,9.204701013183593,-249.66240458015267,208.5884389312977,251.02627099236642,0
2130,-3.568615454101563,-1.161468896484375,8.943733032226561,-249.66240458015267,241.41286641221373,208.42321755725192,0
2155,-3.470453186035156,-1.8533931762695313,7.650864135742187,-249.66240458015267,186.214393129771,140.05680534351146,0
2180,-4.449681665039062,-2.8421984619140623,6.295745996093749,-249.66240458015267,148.0235534351145,76.24001145038169,0
2205,-4.262933935546875,-3.2851257690429683,4.978935083007812,-249.66240458015267,110.31362977099236,29.01863740458015,0
2230,-3.8247950317382813,-4.5803888671875,3.664518371582031,-249.66240458015267,44.90904961832061,-2.4088435114503817,0
2255,-4.830359729003906,-5.028104577636718,1.804223681640625,-249.66240458015267,20.565538167938932,-26.836324427480918,0
2280,-4.31081796875,-5.502156506347656,0.9614646972656249,-232.4333969465649,11.183858778625956,-54.40120992366412,0
2305,-2.824018737792969,-5.940295410156249,-0.27394335937500003,-210.0364503816794,10.0998893129771,-84.57678244274808,0
2330,-2.103364038085938,-6.565182043457031,-1.1574037719726562,-180.96774809160306,5.145690839694657,-117.3859427480916,0
2355,-1.8902800903320314,-6.799813806152343,-1.6577919189453125,-149.3952290076336,-10.976446564885496,-150.84395801526716,0
2380,-1.6388889160156253,-6.112677929687499,-2.9267187988281247,-124.2043893129771,5.993019083969466,-183.2943396946565,0
2405,-0.6165648071289067,-5.854104150390625,-3.537240222167968,-96.525,5.565538167938932,-212.08823282442748,0
2430,0.06338846435546852,-5.200487097167969,-4.121425427246094,-73.47156488549619,9.40523282442748,-240.56914885496184,0
2456,0.8774170288085932,-4.254777441406249,-4.135790637207031,-55.08988549618321,15.214393129770993,-249.24090458015266,0
2481,1.7225702148437492,-3.3306156005859373,-4.300990551757812,-37.90667938931298,23.176225190839695,-249.24090458015266,0
2506,2.6898276855468746,-2.332233508300781,-4.6553323974609375,-22.769274809160304,32.000652671755724,-249.24090458015266,0
2531,3.6307489379882805,-0.9172603271484374,-4.303384753417968,-2.387595419847328,23.64950763358779,-249.24090458015266,0
2556,4.296336999511718,0.32533033447265625,-4.178886267089844,9.070419847328244,45.15332442748091,-249.24090458015266,0
2581,4.969107666015624,2.994865185546875,-4.221981896972657,19.223091603053437,78.76401145038169,-249.24090458015266,0
2606,6.5780111816406235,4.598980297851562,-4.1693094604492185,44.41393129770992,86.23729389312977,-249.24090458015266,0
2631,7.437529577636718,5.580602978515625,-4.631390380859375,74.42919847328244,53.481568702290076,-249.24090458015266,0
2656,7.363309326171874,6.827982043457031,-4.873204748535156,96.93301526717556,79.41286641221375,-249.24090458015266,0
2681,8.162972680664062,9.078531604003905,-4.447036853027344,128.7727099236641,137.16095801526717,-249.24090458015266,0
2706,9.580340063476562,10.206200585937498,-4.992914831542969,190.69637404580152,89.13042366412215,-226.22563740458014,0
2731,7.480625207519531,10.500687390136717,-3.915524084472656,239.97881679389312,77.38233206106871,-194.36304198473283,0
2756,6.661808239746093,11.898901159667968,-3.8173618164062497,250.6047709923664,123.86324809160305,-171.40884351145039,0
2781,7.2316282348632805,14.08001887207031,-3.2355708129882808,250.6047709923664,130.11515648854962,-160.2867061068702,0
2806,6.137478076171875,14.460696936035154,-2.78306669921875,250.6047709923664,130.06172137404582,-157.39357633587787,0
2831,6.709692272949218,15.748777429199217,-2.469426281738281,250.6047709923664,182.80217938931298,-132.64548473282443,0
2856,7.99777276611328,15.566818103027343,-1.6793397338867186,250.6047709923664,242.94721755725192,-71.58441603053434,0
2882,9.381621325683593,15.708076000976561,-0.20690571289062498,248.3833969465649,251.55027099236642,23.476652671755726,0
2907,10.068757202148436,13.842992907714843,1.8999917480468749,189.67347328244273,251.55027099236642,134.03390458015267,0
2932,9.305006872558593,10.974739318847655,3.9709761840820312,117.93301526717556,251.55027099236642,236.07207251908397,0
2957,7.372886132812499,8.958821520996093,6.223919946289062,19.238358778625955,251.55027099236642,251.02627099236642,0
2982,4.791936743164062,6.983605151367187,8.47925791015625,-102.58606870229008,251.55027099236642,251.02627099236642,0
3007,5.177403210449218,3.5766561889648436,10.806421923828124,-198.6395038167939,251.55027099236642,251.02627099236642,0
3032,4.598006408691406,3.270198376464844,11.859870654296873,-246.91431297709923,251.55027099236642,251.02627099236642,0
3057,1.3778051757812495,3.195978125,10.071402014160155,-247.21965648854962,182.87851526717557,251.02627099236642,0
3082,-2.7713463012695314,1.0459850341796875,8.74740849609375,-249.66240458015267,188.76401145038167,251.02627099236642,0
3107,-3.044285290527344,-2.574047875976562,7.648469934082031,-249.66240458015267,236.87851526717557,242.2552786259542,0
3132,-3.113717138671875,-2.1287263671875,7.243849853515624,-249.66240458015267,225.09225572519085,172.62932442748092,0
3157,-4.29166435546875,-2.4902508178710936,5.45298701171875,-249.66240458015267,203.26019465648855,103.18657633587786,0
3182,-2.64445361328125,-4.410400549316406,4.4091150878906245,-249.66240458015267,151.63424045801528,44.881232824427485,0
3207,-3.1639953735351565,-3.1462620727539057,3.209620056152344,-249.66240458015267,36.04645419847328,0.12550763358778627,0
3232,-4.638823596191406,-5.114295837402343,1.3325659545898436,-249.66240458015267,14.542637404580153,-36.21037022900763,0
3257,-4.1384354492187505,-5.794249108886718,0.3461548706054687,-249.66240458015267,71.04645419847328,-69.31724045801526,0
3283,-2.297294372558594,-5.545252136230468,-0.4989983154296874,-231.2043893129771,47.244927480916026,-98.79815648854961,0
3308,-1.3156716918945315,-5.284284155273437,-1.1885283935546875,-197.2043893129771,13.512103053435116,-124.88212595419847,0
3333,-1.3563731201171878,-6.16295616455078,-2.5436465332031246,-172.44866412213742,14.909049618320612,-151.52334732824428,0
3358,-0.803312536621094,-5.901988183593749,-3.522875012207031,-154.6013358778626,39.00828625954198,-177.86685877862595,0
3383,0.2764724121093747,-5.114295837402343,-2.890805773925781,-123.01354961832061,40.92431679389313,-205.53098091603053,0
3408,1.4017471923828122,-4.0584529052734375,-3.0224868652343746,-88.32652671755726,24.08462213740458,-233.0118969465649,0
3433,1.7872136596679686,-2.7584014038085933,-3.987350134277343,-75.6013358778626,38.60370610687023,-249.24090458015266,0
3458,2.7472885253906245,-1.6594628417968749,-4.401547021484375,-66.69293893129772,33.15332442748092,-249.24090458015266,0
3483,3.8558038940429684,-0.41447797851562496,-5.028827856445313,-69.5631679389313,46.939583969465644,-249.24090458015266,0
3508,4.916435229492187,0.6413649536132812,-4.79419609375,-63.71583969465649,41.83271374045801,-249.24090458015266,0
3533,5.115153967285155,2.1784424194335936,-4.7678598754882815,-48.99064885496183,51.38996564885496,-249.24090458015266,0
3558,5.644272534179687,4.017189294433593,-5.153326342773437,-31.387595419847326,59.89378244274809,-249.24090458015266,0
3583,6.503790930175781,5.970857849121094,-5.749482556152343,-8.914312977099238,71.0998893129771,-249.24090458015266,0
3608,6.786306726074218,7.201477502441406,-5.993691125488281,30.63530534351145,77.50446946564885,-249.24090458015266,0
3633,6.673779248046874,8.635604296874998,-6.070305578613281,77.99408396946565,92.31362977099236,-249.24090458015266,0
3658,6.819825549316406,9.58610235595703,-5.936230285644531,130.23072519083968,107.32126335877864,-249.24090458015266,0
3684,6.728845886230467,10.922066882324218,-4.9378481933593745,178.32996183206106,164.6113396946565,-249.24090458015266,0
3709,6.882074792480467,12.914042663574218,-4.2794427368164065,239.40629770992365,160.96248473282444,-240.52334732824428,0
3734,6.1255070678710934,14.539705590820311,-3.484567785644531,250.6047709923664,158.1914923664122,-221.05006488549617,0
3759,6.063257824707031,16.024110620117188,-3.7335647583007807,250.6047709923664,175.6113396946565,-201.309606870229,0
3784,5.945941943359375,17.063194140624997,-3.1924751831054685,250.6047709923664,184.3441641221374,-172.75998854961833,0
3809,6.824613952636718,17.530063464355468,-3.0272752685546873,250.6047709923664,206.214393129771,-133.43937786259542,0
3834,7.787083020019531,17.115866577148434,-2.8979883789062497,250.6047709923664,241.4434007633588,-70.5920496183206,0
3859,8.208462512207031,15.430348608398436,-2.414359643554687,250.6047709923664,251.55027099236642,20.255278625954197,0
3884,8.105511840820313,14.721664916992186,-0.6977170532226562,250.6047709923664,251.55027099236642,127.35451526717557,0
3909,8.58674637451172,12.016217041015624,2.0364612426757813,189.99408396946563,251.55027099236642,224.50718702290078,0
3934,7.981013354492187,9.665111010742185,4.423480297851562,118.10858778625953,251.55027099236642,251.02627099236642,0
3959,6.534915551757812,6.997970361328125,5.649311547851562,31.421564885496185,251.55027099236642,251.02627099236642,0
3984,5.6921565673828125,4.680383154296875,8.460104296874999,-65.41812977099237,251.55027099236642,251.02627099236642,0
4009,5.2995074951171866,2.9038855224609375,8.946127233886719,-134.25019083969465,251.55027099236642,251.02627099236642,0
4034,2.007480212402343,2.592639306640625,9.305257482910156,-172.28835877862596,166.66477480916032,251.02627099236642,0
4059,-1.3467963134765628,0.3780027709960937,7.46411640625,-231.7158396946565,184.01591984732823,251.02627099236642,0
4084,-0.5351619506835941,-2.8326216552734373,7.358771533203124,-249.66240458015267,215.3441641221374,251.02627099236642,0
4110,-0.8655617797851565,-2.562076867675781,7.042736914062499,-249.66240458015267,170.15332442748092,225.96520229007635,0
4135,-3.7409979736328127,-2.6626333374023434,4.9525988647460935,-249.66240458015267,170.7792786259542,159.74382824427482,0
4160,-2.4170044555664063,-5.360898608398437,3.872813916015625,-249.66240458015267,251.55027099236642,96.72856106870229,0
4185,-0.29334758300781294,-4.609119287109374,3.1689186279296875,-249.66240458015267,106.16859160305344,37.514820610687025,0
4210,-1.6676193359375002,-4.71446416015625,1.2535572998046873,-249.66240458015267,25.11515648854962,-15.340141221374047,0
4235,-2.6851550415039065,-5.825373730468749,0.7172561279296874,-249.66240458015267,51.41286641221374,-55.477545801526716,0
4260,-1.282152868652344,-4.855722058105468,-0.8413691528320313,-249.66240458015267,100.97775190839695,-92.34014122137404,0
4285,0.4225187133789059,-4.065635510253906,-1.6960991455078125,-244.38759541984734,38.985385496183206,-124.81342366412214,0
4310,0.37463468017578094,-3.955502233886718,-3.2643012329101557,-229.59370229007635,11.93958396946565,-158.9355610687023,0
4335,0.14000291748046845,-3.4886329101562494,-3.369646105957031,-223.97538167938933,48.71820992366412,-190.57678244274808,0
4361,0.4560375366210936,-2.025775695800781,-3.565970642089843,-211.44103053435114,100.74874427480917,-226.7065534351145,0
4386,1.7560890380859373,-0.9220487304687499,-3.6904691284179685,-176.97538167938933,99.48920229007634,-249.24090458015266,0
4411,2.7329233154296872,0.21040865478515625,-5.6297724731445316,-152.3417938931298,100.92431679389314,-249.24090458015266,0
4436,3.094447766113281,2.707560986328125,-5.69441591796875,-130.66240458015267,107.44340076335878,-249.24090458015266,0
4461,4.382528259277343,5.058667016601563,-5.682444909667969,-103.57843511450382,97.68004198473282,-249.24090458015266,0
4486,4.894887414550781,6.85431826171875,-5.4813319702148435,-71.57843511450382,91.59607251908398,-249.24090458015266,0
4511,5.251623461914062,8.784044799804686,-5.821308605957031,-30.692938931297707,99.74111068702291,-249.24090458015266,0
4536,4.363374645996093,10.471956970214842,-6.266630114746094,17.01698473282443,111.10752290076336,-249.24090458015266,0
4561,4.111983471679687,11.738489648437499,-6.197198266601562,68.45973282442748,136.07698854961833,-249.24090458015266,0
4586,4.375345654296875,13.558082910156248,-5.093471301269531,127.9635496183206,174.67240839694657,-249.24090458015266,0
4611,4.79911934814453,16.04805263671875,-4.011292150878906,193.54370229007634,181.05408778625954,-249.24090458015266,0
4636,4.777571533203124,17.395988171386715,-3.812573413085937,250.6047709923664,174.37469847328245,-249.24090458015266,0
4661,4.140713891601562,18.509291943359372,-3.822150219726562,250.6047709923664,200.06935496183206,-249.24090458015266,0
4686,4.890099011230468,19.426271179199215,-4.324932568359375,250.6047709923664,251.55027099236642,-198.7981564885496,0
4711,5.562869677734374,19.74410144958496,-4.50689189453125,250.6047709923664,251.55027099236642,-115.90502671755725,0
4737,6.894045800781249,18.72955849609375,-3.937071899414062,250.6047709923664,251.55027099236642,-4.485179389312978,0
4762,6.908411010742186,18.909123620605467,-1.6553977172851562,250.6047709923664,251.55027099236642,105.95756870229008,0
4787,7.198109411621092,16.751947924804686,0.14504193115234373,250.6047709923664,251.55027099236642,201.8583320610687,0
4812,6.985025463867188,13.938760974121092,1.5169194824218748,250.6047709923664,251.55027099236642,251.02627099236642,0
4837,6.194938916015624,10.498293188476561,3.4945300537109376,173.475,251.55027099236642,251.02627099236642,0
4862,5.4671016113281246,7.467233886718749,5.077097351074218,61.46736641221374,251.55027099236642,251.02627099236642,0
4887,4.387316662597656,3.844806774902344,6.286169189453124,-44.58606870229008,251.55027099236642,251.02627099236642,0
4912,2.7257407104492186,0.7251620117187499,7.0930151489257804,-157.23492366412214,251.55027099236642,251.02627099236642,0
4937,1.7704542480468746,-1.3314572143554686,7.725084387207031,-242.74637404580153,251.55027099236642,251.02627099236642,0
4962,1.667503576660156,-1.257236962890625,7.562278674316405,-249.66240458015267,249.48920229007635,251.02627099236642,0
4987,-1.502419421386719,-2.775160815429687,5.371584155273437,-249.66240458015267,177.7258435114504,251.02627099236642,0
5012,-2.8024709228515627,-5.430330456542968,4.272645593261719,-249.66240458015267,197.7258435114504,213.7819961832061,0
5037,-1.5814280761718753,-4.046481896972656,3.731556018066406,-249.66240458015267,207.35943129770993,155.03390458015267,0
5062,-2.2158915161132815,-5.229217517089843,2.658953674316406,-249.66240458015267,130.61897328244274,88.51482061068702,0
5087,-2.393062438964844,-5.7296056640624995,-0.14226226806640624,-249.66240458015267,144.13042366412213,37.194209923664125,0
5112,-0.5806517822265627,-5.751153479003905,-0.2883085693359375,-249.66240458015267,118.68767557251908,-12.59968320610687,0
5138,-0.9541472412109377,-5.164574072265625,-1.394429736328125,-248.8074427480916,54.92431679389313,-59.1035,0
5163,-1.2414514404296877,-5.834950537109375,-2.385629223632812,-237.25782442748093,62.9472175572519,-98.24090458015267,0
5188,-0.5471329589843754,-4.812626428222655,-2.5675885498046873,-233.18912213740458,116.35943129770993,-136.36304198473283,0
5213,1.3945645874023436,-4.364910717773437,-2.9650260253906247,-196.25019083969465,85.83271374045802,-175.83632442748092,0
5238,1.629196350097656,-3.9507138305664062,-4.77504248046875,-158.1280534351145,45.489202290076335,-212.04243129770992,0
5263,2.2445061767578123,-3.385682238769531,-4.406335424804688,-138.74637404580153,66.9319503816794,-243.95082824427482,0
5288,2.3498510498046867,-1.9012772094726562,-4.427883239746094,-120.02881679389314,104.7792786259542,-249.24090458015266,0
5313,3.621172131347656,-0.50066923828125,-3.992138537597656,-91.0746183206107,121.19912595419848,-249.24090458015266,0
5338,4.796725146484374,1.3931442749023437,-4.470978869628906,-58.66240458015267,103.9701183206107,-249.24090458015266,0
5363,5.383304553222655,3.186401318359375,-4.178886267089844,-31.372328244274808,89.22966030534351,-249.24090458015266,0
5388,5.270777075195312,5.221472729492187,-4.183674670410157,-9.647137404580153,83.98538549618321,-249.24090458015266,0
5413,4.5477281738281246,6.997970361328125,-3.7000459350585935,16.085687022900764,80.03882061068703,-249.24090458015266,0
5438,4.396893469238281,8.252532031249999,-3.3361272827148434,40.61240458015267,108.33653053435116,-249.24090458015266,0
5463,3.9515719604492183,10.251690417480468,-3.9753791259765623,70.69637404580152,126.05408778625954,-249.24090458015266,0
5488,3.7624300292968744,12.04973586425781,-4.080723999023437,98.03225190839694,154.71820992366412,-249.24090458015266,0
5514,3.714545996093749,14.271555004882812,-3.1182549316406245,141.50553435114503,184.66477480916032,-249.24090458015266,0
5539,3.568499694824218,16.486191540527344,-3.237965014648437,197.68874045801527,208.22202671755727,-249.24090458015266,0
5564,4.763206323242187,18.020874804687498,-3.9394661010742182,250.6047709923664,242.43576717557252,-209.00426335877862,0
5589,4.995443884277343,18.317755810546874,-3.8149676147460934,250.6047709923664,251.55027099236642,-134.50808015267177,0
5614,5.292324890136718,18.360851440429684,-2.0025569580078124,250.6047709923664,251.55027099236642,-43.82869083969465,0
5639,6.041710009765624,19.74410144958496,-1.241200830078125,250.6047709923664,251.55027099236642,49.72092748091603,0
5664,7.46865419921875,19.158120593261717,-0.3266157958984375,250.6047709923664,251.55027099236642,142.14840839694656,0
5689,7.365703527832031,17.63061993408203,2.204055358886719,250.6047709923664,251.55027099236642,221.37741603053436,0
5714,6.917987817382811,15.298667517089843,2.9606230834960936,250.6047709923664,251.55027099236642,251.02627099236642,0
5739,6.403234460449219,12.164657543945312,4.109839880371093,184.72690839694656,251.55027099236642,251.02627099236642,0
5764,6.185362109374998,8.484769592285154,5.218355249023437,83.90248091603053,251.55027099236642,251.02627099236642,0
5789,4.0617052368164055,5.477652307128906,6.099421459960937,-39.70820610687023,251.55027099236642,251.02627099236642,0
5814,3.001073901367187,2.374766955566406,6.5303777587890615,-161.31125954198473,251.55027099236642,251.02627099236642,0
5839,1.4687848388671867,0.21998546142578124,6.508829943847656,-247.4868320610687,251.55027099236642,251.02627099236642,0
5865,-0.5902285888671877,-2.1837930053710934,6.381937255859374,-249.66240458015267,251.55027099236642,251.02627099236642,0
5890,0.25013619384765606,-3.3234329956054682,6.800922546386718,-249.66240458015267,192.9853854961832,251.02627099236642,0
5915,-0.7219096801757816,-3.4168068603515622,4.461787524414062,-249.66240458015267,175.82508015267177,243.68275954198472,0
5940,-2.4457348754882813,-4.170980383300781,2.4722059448242186,-249.66240458015267,165.5121030534351,187.7667290076336,0
5965,-2.5295319335937503,-3.7926965209960932,2.3046118286132815,-249.66240458015267,164.7258435114504,136.23237786259543,0
5990,-2.3308131958007814,-5.231611718749999,0.3006650390625,-249.66240458015267,167.80981297709923,84.30108015267176,0
6015,-0.9134458129882816,-6.122254736328125,-0.6905344482421875,-249.66240458015267,157.87851526717557,34.8965,0
6040,-0.8583791748046878,-6.620248681640624,-1.3585167114257812,-249.66240458015267,178.7029427480916,-11.93556106870229,0
6065,-0.43221127929687553,-4.053664501953125,-2.356898803710937,-249.66240458015267,157.68767557251908,-62.20273664122137,0
6090,0.2381651855468747,-4.647426513671874,-3.4127417358398433,-240.8990458015267,150.26782824427482,-114.62258396946565,0
6115,0.8271387939453123,-5.164574072265625,-3.5539996337890623,-209.76927480916032,163.91668320610688,-160.0118969465649,0
6140,1.4400544189453122,-4.240412231445312,-3.257118627929687,-169.3570610687023,180.214393129771,-201.1035,0
6165,2.4121002929687494,-2.578836279296875,-4.411123828125,-119.15858778625955,157.36706488549618,-237.01953053435113,0
6191,3.0154391113281243,-1.566088977050781,-4.210010888671875,-77.96774809160306,135.38996564885497,-249.24090458015266,0
6216,4.145502294921874,-0.4767272216796875,-4.011292150878906,-46.44103053435114,133.06935496183206,-249.24090458015266,0
6241,4.772783129882812,0.9789473876953124,-3.9011588745117183,-17.85324427480916,141.8403473282443,-249.24090458015266,0
6266,5.048116320800781,2.592639306640625,-3.522875012207031,8.322328244274809,155.37469847328245,-249.24090458015266,0
6291,5.261200268554687,4.316464501953125,-2.871652160644531,44.757442748091606,156.55027099236642,-249.24090458015266,0
6316,5.450342199707031,6.734608178710937,-2.8046145141601557,72.81851145038168,168.2372938931298,-249.24090458015266,0
6341,4.9260120361328115,8.83911143798828,-1.4471021728515625,100.26889312977099,201.78691221374046,-249.24090458015266,0
6366,5.287536486816405,11.147121838378904,-0.532517138671875,139.39103053435113,217.14569083969465,-249.24090458015266,0
6391,5.107971362304687,12.674622497558593,-0.8030619262695312,177.83377862595418,231.29836259541986,-249.24090458015266,0
6416,4.4375948974609365,14.44393752441406,0.3533374755859374,211.82614503816794,251.55027099236642,-247.67601908396946,0
6441,4.040157421875,15.418377600097655,0.8633024291992186,245.7574427480916,251.55027099236642,-195.44701145038167,0
6466,3.4009055786132807,15.851728100585936,1.6701483886718749,250.6047709923664,251.55027099236642,-136.03479770992365,0
6491,3.0154391113281243,18.150161694335935,2.15856552734375,250.6047709923664,251.55027099236642,-70.6683854961832,0
6516,3.994667590332031,18.889970007324216,0.9135806640624999,250.6047709923664,251.55027099236642,-2.43937786259542,0
6541,4.657861450195312,18.94743084716797,1.382844189453125,250.6047709923664,251.55027099236642,69.3316145038168,0
6566,5.1678264038085935,18.482955725097653,4.337289038085937,217.94828244274808,251.55027099236642,148.50718702290078,0
6592,6.554069165039063,17.625831530761715,6.221525744628906,205.93301526717556,251.55027099236642,226.75909541984734,0
6617,6.329014208984375,16.567594396972655,7.064284729003906,186.9864503816794,251.55027099236642,251.02627099236642,0
6642,5.8262318603515615,14.257189794921873,7.375530944824218,156.72690839694656,211.3059961832061,251.02627099236642,0
6667,5.002626489257812,12.150292333984373,7.198360021972656,93.32996183206106,204.27546183206107,251.02627099236642,0
6692,4.246058764648437,9.564554541015625,8.16561749267578,6.612404580152671,210.10752290076337,251.02627099236642,0
6717,2.9938912963867184,6.839953051757813,7.940562536621093,-92.0746183206107,219.90141603053436,251.02627099236642,0
6742,1.313161730957031,4.189571813964844,7.6915655639648435,-210.9448473282443,251.55027099236642,251.02627099236642,0
6767,-0.0826578369140627,1.3763848632812499,7.519183044433593,-249.66240458015267,251.55027099236642,251.02627099236642,0
6792,-0.4800953125000005,-0.5820720947265625,7.725084387207031,-249.66240458015267,251.55027099236642,251.02627099236642,0
6817,-1.4880542114257815,-1.38173544921875,7.042736914062499,-249.66240458015267,226.35179770992366,233.8048969465649,0
6842,-2.4553116821289063,-2.3202624999999997,5.637340539550781,-249.66240458015267,155.91668320610688,180.3697824427481,0
6867,-2.170401684570313,-3.309067785644531,3.975764587402344,-249.66240458015267,140.8174465648855,126.78962977099236,0
6892,-1.981259753417969,-4.242806433105469,2.7762695556640624,-249.66240458015267,99.67240839694657,73.88886641221374,0
6917,-1.8807032836914064,-4.8485394531249995,1.6462063720703124,-249.66240458015267,113.00065267175573,16.73619465648855,0
6942,-1.3444021118164065,-5.143026257324219,-0.09437823486328126,-249.66240458015267,142.57317175572518,-38.668385496183205,0
6967,-0.47530690917968776,-4.249989038085937,-0.1733868896484375,-249.66240458015267,96.3288969465649,-87.99662977099236,0
6993,-0.132936071777344,-4.3409687011718745,-1.990585949707031,-249.66240458015267,52.176225190839695,-131.7828893129771,0
7018,-0.03956220703125046,-4.783896008300781,-2.402388635253906,-245.25019083969465,91.02355343511451,-171.3325076335878,0
7043,0.8438982055664059,-2.8326216552734373,-3.4797793823242182,-228.81507633587788,137.0235534351145,-213.8210572519084,0
7068,1.5142746704101562,-1.49665712890625,-3.3576750976562497,-188.05935114503816,130.93958396946564,-249.24090458015266,0
7093,2.8239029785156244,-1.49665712890625,-3.5827300537109372,-144.06698473282444,121.12279007633589,-249.24090458015266,0
7118,3.115995581054687,0.217591259765625,-3.678498120117187,-102.34942748091603,125.55027099236642,-249.24090458015266,0
7143,3.4009055786132807,1.4721529296874998,-3.295425854492187,-65.48683206106871,157.97011832061068,-249.24090458015266,0
7168,4.181415319824218,3.7657981201171875,-2.986573840332031,-25.49446564885496,190.9319503816794,-249.24090458015266,0
7193,4.892493212890624,6.025924487304687,-2.6489914062499995,22.452099236641224,206.4205,-249.24090458015266,0
7218,5.555687072753906,8.470404382324217,-2.3545046020507807,72.84141221374045,194.75637786259543,-249.24090458015266,0
7243,5.215710437011718,10.594061254882812,-1.8780584716796873,119.6429389312977,193.07698854961833,-249.24090458015266,0
7268,3.9515719604492183,12.43999073486328,-1.0927603271484374,168.68874045801527,201.9090496183206,-249.24090458015266,0
7293,3.7217286010742185,13.886088537597654,-0.8270039428710937,218.0780534351145,232.50446946564887,-249.24090458015266,0
7318,4.133531286621094,15.576394909667966,-0.46547949218749995,250.6047709923664,233.69530916030536,-249.24090458015266,0
7343,2.91009423828125,17.81018505859375,1.2344036865234373,250.6047709923664,251.55027099236642,-248.07296564885496,0
7368,2.4312539062499994,19.74410144958496,3.0061129150390626,250.6047709923664,251.55027099236642,-185.67601908396946,0
7394,3.7432764160156244,19.74410144958496,0.45389394531249994,250.6047709923664,251.55027099236642,-106.51571374045801,0
7419,3.4559722167968747,19.74410144958496,-1.42316015625,250.6047709923664,251.55027099236642,-1.0424312977099235,0
7444,3.5373750732421874,19.74410144958496,-0.29549117431640626,250.6047709923664,251.55027099236642,123.4995534351145,0
7469,4.708139685058593,19.74410144958496,2.92471005859375,221.6582061068702,251.55027099236642,239.0644389312977,0
7494,5.9746723632812495,18.32015001220703,6.147305493164062,190.72690839694656,251.55027099236642,251.02627099236642,0
7519,6.31225479736328,15.973832385253905,7.095409350585937,175.29179389312978,251.55027099236642,251.02627099236642,0
7544,5.572446484374999,12.969109301757811,7.753814807128905,144.2841603053435,224.38996564885497,251.02627099236642,0
7569,3.6283547363281246,10.009876049804687,6.750644311523437,66.26889312977099,251.55027099236642,251.02627099236642,0
7594,2.984314489746093,8.190282788085936,7.195965820312499,-51.70057251908397,251.55027099236642,251.02627099236642,0
7619,1.2987965209960932,4.024371899414062,7.040342712402343,-170.4868320610687,251.55027099236642,251.02627099236642,0
7644,-1.2199036254882816,0.11464058837890624,6.432215490722656,-249.66240458015267,251.55027099236642,251.02627099236642,0
7669,-1.2127210205078127,-2.219706030273437,7.490452624511718,-249.66240458015267,251.55027099236642,251.02627099236642,0
7694,-2.4074276489257813,-2.7991028320312497,5.512842053222656,-249.66240458015267,189.66477480916032,251.02627099236642,0
7719,-3.8032472167968754,-4.182951391601562,3.19286064453125,-249.66240458015267,219.33653053435114,209.85069847328245,0
7744,-2.038720593261719,-4.470255590820312,2.8935854370117187,-249.66240458015267,172.46630152671756,153.68275954198472,0
7769,-2.0243553833007812,-4.6977047485351555,2.5224841796875,-249.66240458015267,177.3441641221374,76.0491717557252,0
7795,-4.095339819335938,-5.32019718017578,-0.9251662109375,-249.66240458015267,196.95485114503816,0.5377213740458016,0
7820,-2.431369665527344,-5.234005920410156,-1.9857975463867186,-249.66240458015267,251.55027099236642,-67.309606870229,0
7845,0.6068722412109371,-4.958672729492187,-1.1023371337890624,-249.66240458015267,218.3288969465649,-129.36304198473283,0
7870,0.7050345092773433,-3.2396359374999997,-2.1893046874999995,-204.05935114503816,89.00828625954199,-171.65311832061067,0
7895,0.683486694335937,-3.3401924072265623,-4.650543994140625,-158.49446564885497,78.72584351145039,-205.58441603053436,0
7920,0.8079851806640623,-2.784737622070312,-4.538016516113281,-147.86851145038167,173.20675954198472,-237.54624809160305,0
7945,1.4568138305664062,-1.5972135986328124,-3.101495520019531,-99.95248091603054,174.6495076335878,-249.24090458015266,0
7970,2.7832015502929686,-0.701782177734375,-3.400770727539062,-51.57843511450382,162.20675954198472,-249.24090458015266,0
7995,3.6092011230468746,1.117811083984375,-3.082341906738281,-17.105152671755725,176.7258435114504,-249.24090458015266,0
8020,4.363374645996093,2.56390888671875,-2.1940930908203122,8.994083969465649,189.61897328244274,-249.24090458015266,0
8045,5.072058337402343,5.161617687988281,-1.55723544921875,49.42156488549618,169.65714122137405,-249.24090458015266,0
8070,6.135083874511719,6.811222631835937,-2.0600177978515624,88.12385496183205,127.46630152671756,-249.24090458015266,0
8095,5.943547741699217,7.610885986328125,-2.0217105712890624,117.26889312977099,116.82508015267176,-249.24090458015266,0
8120,5.052904724121093,9.444844458007811,-1.5356876342773438,146.42919847328244,134.35179770992366,-249.24090458015266,0
8145,4.90207001953125,12.001851831054687,-1.25077763671875,175.3757633587786,172.92431679389313,-249.24090458015266,0
8170,5.0936061523437495,14.206911560058591,-1.068818310546875,216.83377862595418,185.16859160305344,-249.24090458015266,0
8196,4.791936743164062,15.12149659423828,-0.9969922607421875,250.32996183206106,209.94721755725192,-235.01953053435113,0
8221,4.64589044189453,15.0329111328125,-0.26676075439453123,250.6047709923664,245.77164503816795,-179.1264007633588,0
8246,3.0657173461914056,15.413589196777343,1.9885772094726561,250.6047709923664,251.55027099236642,-109.40884351145039,0
8271,4.459142712402343,17.501333044433593,-0.034523193359375,250.6047709923664,226.2372938931298,-42.63785114503816,0
8296,4.885310607910156,18.980949670410155,-2.2276119140624995,250.6047709923664,251.55027099236642,7.316347328244275,0
8321,5.081635144042968,18.87560479736328,1.0452617553710937,232.2459923664122,251.55027099236642,63.820164122137406,0
8346,6.6163184082031234,17.676109765624997,3.4250982055664063,225.61240458015266,251.55027099236642,132.4995534351145,0
8371,7.226839831542969,16.739976916503906,3.4562228271484376,223.03225190839694,228.50446946564887,194.5987900763359,0
8396,7.17416739501953,16.639420446777343,4.4091150878906245,199.76507633587786,212.3288969465649,249.8735992366412,0
8421,6.6905386596679675,13.998616015624998,5.218355249023437,160.80324427480915,230.0464541984733,251.02627099236642,0
8446,6.278735974121093,11.855805529785155,5.302152307128906,105.21545801526717,249.97775190839695,251.02627099236642,0
8471,5.0744525390624995,9.291615551757811,5.967740368652343,28.29179389312977,251.55027099236642,251.02627099236642,0
8496,3.862986499023437,5.882272387695313,6.42263868408203,-75.04408396946566,251.55027099236642,251.02627099236642,0
8521,2.3690046630859367,3.550319970703125,6.911055822753905,-186.8303435114504,251.55027099236642,251.02627099236642,0
8546,1.0617705566406248,0.8352952880859374,7.289339685058593,-249.66240458015267,251.55027099236642,251.02627099236642,0
8571,1.1695096313476556,-0.7376952026367187,8.788109924316405,-249.66240458015267,251.55027099236642,251.02627099236642,0
8597,0.2764724121093747,-2.8565636718749996,7.895072705078125,-249.66240458015267,251.55027099236642,251.02627099236642,0
8622,-2.4241870605468754,-2.6051724975585935,5.807328857421874,-249.66240458015267,204.14569083969465,215.02627099236642,0
8647,-3.137659155273438,-4.175768786621093,5.187230627441406,-249.66240458015267,196.1227900763359,158.11024045801528,0
8672,-4.191107885742188,-4.824597436523437,3.7985936645507814,-249.66240458015267,181.7792786259542,96.98810305343511,0
8697,-3.8535254516601567,-5.897199780273437,2.6134638427734376,-249.66240458015267,167.3059961832061,36.339248091603054,0
8722,-3.3651083129882813,-5.911564990234375,1.4163630126953124,-249.66240458015267,169.94721755725192,-24.95082824427481,0
8747,-2.3595436157226564,-6.18210977783203,0.7842937744140625,-227.72347328244274,104.31362977099236,-78.80579007633588,0
8772,-3.2908880615234377,-4.803049621582031,-1.5141398193359374,-191.19675572519085,44.20675954198473,-125.47754580152672,0
8797,-2.8168361328125,-5.183727685546875,-2.220429309082031,-177.4104961832061,38.50446946564885,-160.20273664122138,0
8822,-1.3348253051757815,-5.705663647460937,-2.835739135742187,-175.83797709923664,87.12279007633589,-196.94319465648854,0
8847,-1.0547037109375004,-4.388852734375,-2.6585682128906245,-168.2272900763359,138.42813358778628,-237.85159160305344,0
8872,-0.4010866577148442,-2.0712655273437495,-2.8477101440429684,-128.06698473282444,95.55027099236642,-249.24090458015266,0
8897,0.9660024902343745,-2.6195377075195307,-3.3385214843749997,-98.32652671755726,79.77164503816795,-249.24090458015266,0
8922,1.7225702148437492,-1.6786164550781248,-2.9458724121093747,-75.86851145038169,103.27546183206107,-249.24090458015266,0
8947,2.941218859863281,0.46658823242187497,-2.4957624999999997,-44.31125954198473,119.00828625954199,-249.24090458015266,0
8972,3.7576416259765617,2.331671325683594,-2.5675885498046873,-4.891412213740458,107.26782824427481,-249.24090458015266,0
8998,4.205357336425781,4.045919714355469,-3.565970642089843,20.268893129770994,108.34416412213741,-249.24090458015266,0
9023,4.947559851074218,5.520747937011719,-3.3121852661132807,42.54370229007634,119.64950763358779,-249.24090458015266,0
9048,5.124730773925781,7.457657080078125,-2.787855102539062,72.04751908396946,135.9853854961832,-249.24090458015266,0
9073,5.795107238769531,9.19584748535156,-2.3592930053710934,114.32996183206106,150.66477480916032,-249.24090458015266,0
9098,5.838202868652343,11.661875195312499,-2.481397290039062,155.42156488549617,165.68767557251908,-249.24090458015266,0
9123,5.797501440429687,13.833416101074217,-1.7631367919921874,193.68874045801527,198.5121030534351,-249.24090458015266,0
9148,6.115930261230468,14.819827185058593,-1.0448762939453125,238.93301526717556,231.626606870229,-233.95082824427482,0
9173,5.749617407226562,16.112696081542968,0.030120251464843747,250.6047709923664,246.13042366412213,-178.3325076335878,0
9198,6.597164794921874,16.701669689941404,0.6669778930664062,250.6047709923664,251.55027099236642,-119.31724045801526,0
9223,6.214092529296875,17.079953552246092,2.2160263671875002,250.6047709923664,251.55027099236642,-44.866858778625954,0
9248,6.250005554199219,18.669703454589843,2.8337303955078124,250.6047709923664,251.55027099236642,44.056805343511456,0
9273,6.1829679077148425,18.719981689453125,2.7188087158203125,250.6047709923664,251.55027099236642,140.94230152671756,0
9298,5.845385473632812,17.55400548095703,4.796975756835937,250.6047709923664,251.55027099236642,242.78962977099238,0
9323,5.871721691894531,18.363245642089844,5.649311547851562,172.0780534351145,251.55027099236642,251.02627099236642,0
9348,6.163814294433593,14.870105419921874,6.901479016113281,52.261259541984735,251.55027099236642,251.02627099236642,0
9374,6.015373791503905,11.00346973876953,8.091397241210936,-89.47919847328245,251.55027099236642,251.02627099236642,0
9399,4.621948425292969,6.617292297363281,10.35631201171875,-214.8303435114504,251.55027099236642,251.02627099236642,0
9424,3.0130449096679683,3.4138504760742188,10.708259655761719,-249.66240458015267,251.55027099236642,251.02627099236642,0
9449,0.242953588867187,1.1728777221679687,10.543059741210937,-249.66240458015267,251.55027099236642,251.02627099236642,0
9474,0.6140548461914057,-1.3865238525390624,10.947679821777342,-249.66240458015267,239.27546183206107,251.02627099236642,0
9499,-0.6907850585937503,-1.6259440185546874,8.776138916015624,-249.66240458015267,201.1227900763359,231.14077480916032,0
9524,-3.005978063964844,-1.1064022583007813,6.784163134765624,-249.66240458015267,186.22202671755727,178.98046946564887,0
9549,-3.0706215087890625,-3.723264672851562,6.123363476562499,-249.66240458015267,134.7945458015267,131.16367557251908,0
9574,-4.25335712890625,-4.654609118652344,3.9853413940429685,-249.66240458015267,159.55027099236642,74.68275954198474,0
9599,-6.096892407226562,-4.103942736816406,2.61825224609375,-249.66240458015267,221.77164503816795,6.499553435114503,0
9624,-4.641217797851563,-4.3050556762695305,1.3972093994140624,-249.66240458015267,192.18385877862596,-50.40120992366412,0
9649,-2.697126049804688,-4.8485394531249995,1.5815629272460936,-249.66240458015267,153.64187404580153,-98.17983587786259,0
9674,-2.326024792480469,-4.987403149414062,-0.67616923828125,-211.86851145038167,82.29072900763359,-140.14930152671755,0
9699,-2.4648884887695313,-4.537293237304687,-1.51892822265625,-188.8837786259542,70.90904961832061,-176.76762213740457,0
9724,-1.1313181640625003,-4.747982983398437,-2.268313342285156,-168.0364503816794,65.20675954198474,-209.18746946564886,0
9749,0.08014787597656214,-5.468637683105468,-2.7902493041992185,-144.42576335877862,79.51210305343511,-239.95082824427482,0
9775,0.824744592285156,-4.532504833984374,-1.7248295654296875,-104.65477099236642,82.96248473282444,-249.24090458015266,0
9800,1.0186749267578121,-4.065635510253906,-1.78707880859375,-53.93721374045801,80.60370610687023,-249.24090458015266,0
9825,2.2181699584960937,-2.925995520019531,-2.2084583007812495,-2.6547709923664122,60.756377862595414,-249.24090458015266,0
9850,2.5820886108398433,-0.8119154541015625,-2.4263306518554684,27.742175572519084,69.76401145038169,-249.24090458015266,0
9875,3.5134330566406247,0.7491040283203124,-2.976997033691406,45.55896946564886,85.79454580152672,-249.24090458015266,0
9900,4.6243426269531245,1.9653584716796872,-2.864469555664062,65.98645038167939,104.55790458015268,-249.24090458015266,0
9925,4.133531286621094,3.7466445068359375,-2.4646378784179683,93.38339694656489,115.5350038167939,-249.24090458015266,0
9950,6.352956225585937,5.829599951171875,-2.395206030273437,125.87958015267175,155.47393511450383,-249.24090458015266,0
9975,6.673779248046874,8.049024890136717,-2.019316369628906,169.82614503816794,153.71820992366412,-249.24090458015266,0
10000,5.754405810546875,9.811157312011717,-1.2914790649414063,212.43683206106869,161.58080534351146,-249.24090458015266,0
10025,5.146278588867187,12.085648889160154,-0.1159260498046875,250.6047709923664,194.54263740458015,-249.24090458015266,0
10050,5.287536486816405,14.506186767578123,0.51135478515625,250.6047709923664,220.86324809160305,-231.08823282442748,0
10075,5.222893041992187,16.605901623535154,1.1003283935546875,250.6047709923664,224.64187404580153,-195.5004465648855,0
10100,4.830243969726562,18.214805139160156,1.411574609375,250.6047709923664,235.3975992366412,-157.27907251908397,0
10125,4.305913806152343,18.758288916015623,0.7531691528320312,250.6047709923664,251.55027099236642,-99.08823282442748,0
10151,4.277183386230468,18.56196437988281,0.9566762939453124,250.6047709923664,251.55027099236642,-11.62258396946565,0
10176,5.649060937499999,19.184456811523436,2.8121825805664065,241.03225190839694,251.55027099236642,97.18657633587786,0
10201,7.7032859619140615,19.081506140136717,5.757050622558594,190.1162213740458,251.55027099236642,203.63695801526717,0
10226,7.588364282226562,16.483797338867184,6.300534399414062,149.36812977099237,251.55027099236642,251.02627099236642,0
10251,6.460695300292968,14.690540295410155,7.8232466552734365,74.93301526717556,251.55027099236642,251.02627099236642,0
10276,5.189374218749999,11.657086791992187,9.211883618164062,-25.089885496183204,251.55027099236642,251.02627099236642,0
10301,2.778413146972656,8.185494384765624,9.664387731933592,-151.76927480916032,251.55027099236642,251.02627099236642,0
10326,0.2740782104492183,4.924591723632813,9.578196472167967,-249.66240458015267,251.55027099236642,251.02627099236642,0
10351,-2.0698452148437503,0.5001070556640624,9.64044571533203,-249.66240458015267,251.55027099236642,251.02627099236642,0
10376,-2.5103783203125003,-2.277166870117187,11.567778051757811,-249.66240458015267,251.55027099236642,251.02627099236642,0
10401,-3.75536318359375,-1.2524485595703125,9.673964538574218,-249.66240458015267,251.55027099236642,209.0873396946565,0
10426,-6.4177154296875,-2.2819552734374997,7.097803552246093,-249.66240458015267,196.26019465648855,142.11024045801528,0
10451,-4.696284436035157,-3.6897458496093747,5.922250537109375,-249.66240458015267,140.92431679389313,86.0110038167939,0
10476,-4.432922253417969,-3.119925854492187,3.2958113159179687,-249.66240458015267,68.94721755725192,26.911767175572518,0
10503,-5.385814514160156,-4.132673156738281,1.7563396484374998,-249.66240458015267,64.00065267175573,-28.13403435114504,0
10528,-5.0027422485351565,-5.873257763671875,0.046879663085937495,-249.66240458015267,109.58080534351146,-74.82869083969466,0
10553,-3.554250244140625,-5.573982556152343,-0.37449982910156243,-237.51736641221373,134.4205,-118.79815648854961,0
10578,-2.402639245605469,-4.800655419921875,-1.011357470703125,-181.5479007633588,95.43576717557252,-159.1416679389313,0
10603,-2.0698452148437503,-4.968249536132812,-1.5883600708007812,-135.02881679389313,75.74874427480917,-193.14930152671755,0
10628,-0.812889343261719,-5.193304492187499,-1.8277802368164062,-102.08988549618321,90.14569083969467,-223.00426335877862,0
10653,-0.029985400390625472,-3.921983410644531,-2.0815656127929683,-66.44866412213742,100.83271374045802,-249.24090458015266,0
10678,1.1503560180664056,-3.5341227416992185,-2.5867421630859373,-25.387595419847326,84.3059961832061,-249.24090458015266,0
10703,2.0721236572265624,-3.4311720703124995,-2.641808801269531,9.543702290076336,80.5350038167939,-249.24090458015266,0
10728,2.8191145751953117,-2.7895260253906247,-2.328168383789062,37.97118320610687,90.78691221374046,-249.24090458015266,0
10753,3.563711291503906,-1.4080716674804687,-1.97861494140625,61.34522900763359,107.26019465648855,-249.24090458015266,0
10778,4.088041455078124,0.11464058837890624,-1.1693747802734376,91.91774809160304,93.68004198473282,-249.24090458015266,0
10803,4.459142712402343,1.9605700683593748,-1.9953743530273436,117.08568702290076,74.0998893129771,-249.24090458015266,0
10828,5.3952755615234365,2.9421927490234374,-2.4550610717773433,118.90248091603053,116.8174465648855,-249.24090458015266,0
10853,5.792713037109375,4.946139538574219,-0.24042453613281248,133.52080152671755,158.00065267175572,-249.24090458015266,0
10878,6.364927233886719,7.191900695800781,-0.3481636108398437,163.97118320610687,162.78691221374046,-249.24090458015266,0
10904,6.496608325195312,8.659546313476561,-1.1047313354492188,192.0398854961832,147.7945458015267,-249.24090458015266,0
10929,6.700115466308593,10.510264196777342,0.24559840087890625,222.52843511450382,162.4205,-232.79052290076336,0
10954,6.975448657226562,12.660257287597656,0.04448546142578125,250.6047709923664,194.7792786259542,-185.90502671755726,0
10979,7.229234033203125,14.257189794921873,-0.2691549560546875,250.6047709923664,192.2372938931298,-130.9355610687023,0
11004,5.608359509277343,14.896441638183592,0.4419229370117187,250.6047709923664,217.83271374045802,-70.80579007633588,0
11029,4.341826831054687,16.27071339111328,1.7898584716796873,250.6047709923664,251.55027099236642,-9.195103053435115,0
11054,4.181415319824218,17.91792413330078,2.0556148559570313,250.6047709923664,251.55027099236642,44.18657633587787,0
11079,4.964319262695311,18.267477575683593,3.611845935058594,250.6047709923664,251.55027099236642,91.07970610687023,0
11104,6.2954953857421865,18.26029497070312,4.543190380859374,250.6047709923664,251.55027099236642,142.56062213740458,0
11129,7.358520922851562,17.065588342285153,6.3915140625,231.50553435114503,251.55027099236642,209.3163473282443,0
11154,7.57639327392578,14.800673571777342,8.32602900390625,153.80324427480915,251.55027099236642,251.02627099236642,0
11179,6.3697156372070305,12.169445947265624,9.786492016601562,35.452099236641224,251.55027099236642,251.02627099236642,0
11204,3.8677749023437498,8.453644970703124,10.653193017578124,-113.57080152671756,251.55027099236642,251.02627099236642,0
11229,1.3658341674804682,5.1185220581054685,12.372229809570312,-249.66240458015267,251.55027099236642,251.02627099236642,0
11254,-0.8464081665039065,2.408285778808594,13.219777197265625,-249.66240458015267,251.55027099236642,251.02627099236642,0
11280,-1.6580425292968752,-0.2756142822265625,12.45602686767578,-249.66240458015267,251.55027099236642,251.02627099236642,0
11305,-2.2158915161132815,-0.09844335937500001,12.250125524902343,-249.66240458015267,251.55027099236642,239.2934465648855,0
11330,-3.8176124267578126,-0.46954461669921876,9.669176135253906,-249.66240458015267,152.74874427480916,172.7132938931298,0
11355,-6.568550134277343,-1.831845361328125,6.293351794433593,-249.66240458015267,173.37469847328245,109.79726335877864,0
11380,-6.697837023925781,-3.936348620605468,5.405102978515624,-249.66240458015267,191.74874427480916,47.0491717557252,0
11405,-6.669106604003906,-3.3234329956054682,3.5424140869140626,-249.66240458015267,194.50446946564887,-13.43937786259542,0
11430,-5.5749564453125,-4.501380212402343,2.5751566162109376,-249.66240458015267,137.4968358778626,-66.40120992366411,0
11455,-6.211814086914062,-4.879664074707031,1.7970410766601561,-220.0135496183206,108.67240839694657,-111.27907251908397,0
11480,-5.965211315917969,-3.7831197143554682,0.030120251464843747,-187.15858778625955,111.88614885496183,-153.82869083969464,0
11505,-4.303635363769532,-4.197316601562499,-1.05924150390625,-144.0364503816794,60.298362595419846,-186.8744923664122,0
11530,-2.9221810058593753,-5.145420458984375,-0.6498330200195312,-111.26545801526719,21.695309160305342,-209.48517938931298,0
11555,-2.4002450439453127,-5.712846252441405,-1.5356876342773438,-87.38759541984733,12.657141221374046,-228.35540839694656,0
11580,-2.0650568115234376,-4.819809033203125,-1.1238849487304687,-75.42576335877864,51.88614885496183,-248.309606870229,0
11605,-0.16406069335937534,-3.9507138305664062,-1.336968896484375,-52.059351145038164,77.19912595419848,-249.24090458015266,0
11630,1.5501876953124993,-3.4311720703124995,-1.5787832641601562,-12.616603053435115,63.22202671755725,-249.24090458015266,0
11655,1.8638281127929686,-2.7775550170898433,-1.8612990600585937,18.062786259541987,70.91668320610687,-249.24090458015266,0
11681,1.950019372558593,-1.4511672973632812,-0.8150329345703125,43.8719465648855,109.78691221374046,-249.24090458015266,0
11706,3.1088129760742182,1.1680893188476562,-0.7767257080078125,74.475,125.8174465648855,-249.24090458015266,0
11731,4.360980444335937,3.279775183105469,-1.0089632690429686,107.41393129770992,96.19912595419848,-249.24090458015266,0
11756,5.064875732421874,4.6660179443359375,-0.8078503295898437,122.60477099236641,97.41286641221375,-249.24090458015266,0
11781,5.419217578124999,5.616516003417969,-1.0065690673828125,136.84141221374045,99.1380572519084,-249.24090458015266,0
11806,5.82144345703125,6.770521203613281,-0.56124755859375,153.39103053435113,108.22966030534351,-249.24090458015266,0
11831,6.113536059570312,8.62842169189453,0.3030592407226562,179.59713740458014,136.90141603053436,-249.24090458015266,0
11856,6.654625634765623,11.36738839111328,0.9399168823242187,214.29942748091602,167.94721755725192,-249.24090458015266,0
11881,7.202897814941406,12.844610815429686,0.4227693237304687,250.6047709923664,171.36706488549618,-239.52334732824428,0
11906,6.858132775878906,14.261978198242186,0.9183690673828124,250.6047709923664,191.87088167938933,-188.92792748091603,0
11931,6.542098156738281,15.686528186035154,1.7060614135742187,250.6047709923664,229.0235534351145,-124.309606870229,0
11956,6.3697156372070305,16.862081201171872,2.4506581298828127,250.6047709923664,251.55027099236642,-48.859225190839695,0
11981,6.170996899414061,17.50372724609375,3.46101123046875,250.6047709923664,251.55027099236642,36.507187022900766,0
12006,5.651455139160155,18.413523876953125,5.124981384277343,250.6047709923664,251.55027099236642,131.16367557251908,0
12031,5.6562435424804685,19.196427819824216,5.812117260742187,250.6047709923664,251.55027099236642,211.5758893129771,0
12057,5.615542114257813,19.165303198242185,7.0714673339843745,214.58187022900762,251.55027099236642,251.02627099236642,0
12082,5.323449511718749,17.453449011230468,7.2606092651367184,135.5666030534351,251.55027099236642,251.02627099236642,0
12107,5.464707409667969,13.491045263671873,8.60615059814453,25.070419847328246,251.55027099236642,251.02627099236642,0
12132,4.710533886718749,9.71299504394531,10.143228063964843,-94.54026717557252,251.55027099236642,251.02627099236642,0
12157,2.629972644042968,6.598138684082031,11.009929064941405,-218.57843511450383,251.55027099236642,251.02627099236642,0
12182,0.8462924072265623,4.072255932617187,11.627633093261718,-249.66240458015267,251.55027099236642,251.02627099236642,0
12207,-1.9070395019531252,1.328500830078125,11.371453515625,-249.66240458015267,251.55027099236642,251.02627099236642,0
12232,-2.8982389892578126,-0.9555675537109374,10.169564282226562,-249.66240458015267,251.55027099236642,231.56062213740458,0
12257,-4.3491251953125,-1.1949877197265624,10.109709240722655,-249.66240458015267,251.55027099236642,148.7667290076336,0
12282,-4.950069812011719,-1.49665712890625,8.110550854492187,-249.66240458015267,208.3441641221374,73.20184351145039,0
12307,-5.7545215698242185,-2.782343420410156,5.278210290527343,-249.66240458015267,156.10752290076337,15.667492366412214,0
12332,-6.32194736328125,-3.8142443359374996,3.049208544921875,-249.66240458015267,191.55027099236642,-36.164568702290076,0
12357,-5.309200061035156,-3.292308374023437,1.8401367065429686,-249.66240458015267,155.91668320610688,-83.96609541984732,0
12382,-3.9109862915039066,-3.433566271972656,1.6893020019531249,-249.66240458015267,123.18385877862596,-124.95846183206106,0
12407,-3.341166296386719,-4.075212316894531,-0.23563613281249998,-248.21965648854962,82.1380572519084,-156.48517938931298,0
12432,-2.754586889648438,-3.9315602172851563,-1.3058442749023438,-215.25782442748093,85.1762251908397,-182.16456870229007,0
12458,-1.3563731201171878,-3.3497692138671873,-1.9331251098632811,-186.318893129771,101.4968358778626,-211.52334732824428,0
12483,-0.34362581787109425,-2.976273754882812,-1.6194846923828123,-151.57843511450383,107.75637786259543,-239.37067557251908,0
12508,0.7529185424804683,-3.012186779785156,-2.289861157226562,-106.47919847328245,112.88614885496183,-249.24090458015266,0
12533,1.9021353393554685,-2.7129115722656247,-2.871652160644531,-53.31889312977099,109.41286641221375,-249.24090458015266,0
12558,2.742500122070312,-2.3082914916992183,-2.682510229492187,-2.1509541984732823,115.5350038167939,-249.24090458015266,0
12583,3.039381127929687,-1.26681376953125,-2.3161973754882808,45.8719465648855,136.24492748091603,-249.24090458015266,0
12608,3.5014620483398433,0.20083184814453126,-2.076777209472656,90.9253816793893,155.28309541984734,-249.24090458015266,0
12633,5.086423547363281,1.1489357055664062,-1.40400654296875,131.58187022900762,162.83271374045802,-249.24090458015266,0
12658,6.319437402343749,2.427439392089844,-0.37449982910156243,166.72690839694656,172.22202671755727,-249.24090458015266,0
12683,5.795107238769531,4.1225341674804685,0.7627459594726562,203.48263358778627,168.26019465648855,-249.24090458015266,0
12708,6.036921606445312,5.9612810424804685,0.03730285644531249,229.3833969465649,163.8556145038168,-249.24090458015266,0
12733,5.060087329101562,7.855094555664063,0.3030592407226562,242.36812977099237,175.4968358778626,-249.24090458015266,0
12758,4.66504405517578,9.56694874267578,0.8130241943359374,250.6047709923664,189.7792786259542,-234.71418702290077,0
12783,4.382528259277343,11.441608642578124,2.8528840087890623,250.6047709923664,221.57317175572518,-212.25617175572518,0
12808,5.409640771484374,13.445555432128904,4.485729541015624,250.6047709923664,236.4205,-181.20273664122138,0
12834,6.671385046386718,15.600336926269529,3.3532721557617187,250.6047709923664,221.2372938931298,-143.69891984732823,0
12859,5.893269506835936,17.5611880859375,1.9239337646484374,250.6047709923664,217.3288969465649,-100.6683854961832,0
12884,3.8917169189453116,19.306561096191405,2.5560030029296876,250.6047709923664,247.29836259541986,-32.935561068702285,0
12909,4.2101457397460935,18.557175976562498,3.3867909790039064,250.6047709923664,251.55027099236642,63.09497328244275,0
12934,4.461536914062499,18.763077319335935,4.145752905273437,229.21545801526716,251.55027099236642,165.8583320610687,0
12959,3.937206750488281,19.450213195800778,5.869578100585937,152.45973282442748,251.55027099236642,251.02627099236642,0
12984,4.801513549804687,18.10706606445312,7.962110351562499,91.91011450381679,251.55027099236642,251.02627099236642,0
13009,4.784754138183593,15.052064746093748,8.500805725097656,34.03225190839695,251.4586679389313,251.02627099236642,0
13034,3.681027172851562,11.898901159667968,9.41060235595703,-32.70820610687023,251.55027099236642,251.02627099236642,0
13059,2.9914970947265616,9.147963452148437,10.248572937011717,-106.15858778625955,251.55027099236642,251.02627099236642,0
13084,0.9923387084960935,6.598138684082031,10.11928604736328,-189.98301526717557,251.55027099236642,251.02627099236642,0
13109,-0.7913415283203129,3.5527141723632814,9.518341430664062,-249.66240458015267,251.55027099236642,251.02627099236642,0
13134,-1.8423960571289064,0.3780027709960937,10.954862426757812,-249.66240458015267,251.55027099236642,251.02627099236642,0
13159,-2.9365462158203126,-0.24688386230468748,10.370677221679687,-249.66240458015267,251.55027099236642,232.94993511450383,0
13184,-4.059426794433594,-1.3123036010742186,8.507988330078124,-249.66240458015267,211.26782824427482,156.43085114503816,0
13209,-6.037037365722656,-3.254001147460937,5.864789697265625,-249.66240458015267,204.37469847328245,88.20947709923665,0
13234,-6.032248962402344,-3.991415258789062,4.643746850585937,-249.66240458015267,201.76401145038167,25.972835877862597,0
13260,-5.3451130859375,-4.946701721191406,4.191242736816406,-249.66240458015267,191.1762251908397,-26.530980916030536,0
13285,-5.330747875976563,-3.8190327392578123,3.0635737548828126,-249.66240458015267,148.61897328244274,-70.53861450381679,0
13310,-3.958870324707031,-4.743194580078124,2.151382922363281,-249.66240458015267,119.58080534351146,-108.01189694656489,0
13335,-3.6332588989257815,-4.611513488769531,0.8896386474609375,-209.19675572519085,63.618973282442745,-144.6149503816794,0
13360,-3.4920010009765625,-5.052046594238281,-0.7886967163085937,-166.8074427480916,46.10752290076336,-175.14930152671755,0
13385,-2.649242016601563,-5.28907255859375,-0.29070277099609376,-136.47156488549618,68.98538549618321,-203.11113358778627,0
13410,-0.563892370605469,-4.625878698730468,-0.9395314208984374,-92.26545801526719,49.68767557251908,-226.53098091603053,0
13435,0.3698462768554682,-4.0967601318359375,-1.72961796875,-51.929580152671754,17.634240458015267,-248.7294541984733,0
13460,0.19985795898437475,-3.9459254272460935,-1.6146962890624998,-24.150954198473283,18.26782824427481,-249.24090458015266,0
13485,0.5661708129882808,-4.190133996582031,-1.4614673828125,0.6353053435114504,67.09225572519084,-249.24090458015266,0
13510,1.6220137451171874,-1.815085949707031,-1.2435950317382811,36.627671755725196,87.09225572519084,-249.24090458015266,0
13535,2.926853649902343,-0.28519108886718747,-1.4973804077148436,73.03225190839694,76.4205,-249.24090458015266,0
13560,4.009032800292968,0.5575678955078125,-2.3066205688476558,92.97881679389313,83.46630152671756,-249.24090458015266,0
13585,4.382528259277343,1.6181992309570312,-1.1143081420898437,111.42919847328244,109.48156870229008,-249.24090458015266,0
13610,5.124730773925781,3.8136821533203125,0.17616655273437498,143.0551526717557,132.7945458015267,-249.24090458015266,0
13635,6.460695300292968,6.006770874023437,0.8345720092773437,178.63530534351145,149.2372938931298,-249.24090458015266,0
13660,7.073610925292969,7.574972961425781,1.2224326782226562,214.63530534351145,158.83271374045802,-240.22563740458014,0
13686,7.377674536132811,8.506317407226561,2.7834521606445315,246.3986641221374,196.7945458015267,-216.40884351145039,0
13711,6.946718237304688,10.584484448242186,4.021254418945312,250.6047709923664,202.47393511450383,-174.49281297709922,0
13736,7.301060083007811,11.85819973144531,3.662124169921875,250.6047709923664,172.76401145038167,-126.39357633587785,0
13761,6.396051855468749,13.524564086914062,3.3987619873046877,250.6047709923664,166.22966030534351,-83.79052290076335,0
13786,5.792713037109375,14.843769201660155,5.098645166015625,250.6047709923664,197.46630152671756,-42.935561068702285,0
13811,5.742434802246094,15.815815075683592,5.089068359374999,250.6047709923664,212.7258435114504,4.003370229007634,0
13836,6.113536059570312,17.312191113281248,6.17364171142578,250.6047709923664,209.00065267175572,51.18657633587787,0
13861,6.793489331054686,17.824550268554685,7.500029431152343,250.6047709923664,197.55027099236642,100.28581297709924,0
13886,6.678567651367186,17.38162296142578,7.679594555664062,250.6047709923664,213.55790458015267,159.4613854961832,0
13911,7.224445629882811,16.476614733886716,8.467286901855468,188.1696564885496,246.03882061068703,228.13314122137405,0
13936,7.480625207519531,15.037699536132811,9.729031176757811,114.4368320610687,236.54263740458015,251.02627099236642,0
13961,5.663426147460936,11.75046065673828,9.908596301269531,18.589503816793894,251.55027099236642,251.02627099236642,0
13986,3.865380700683593,8.678699926757812,10.63643360595703,-101.67003816793894,251.55027099236642,251.02627099236642,0
14011,1.7800310546874991,5.879878186035156,11.685093933105469,-229.86087786259543,251.55027099236642,251.02627099236642,0
14036,-0.003649182128906414,3.8926908081054687,12.173511071777343,-249.66240458015267,251.55027099236642,251.02627099236642,0
14061,-1.7250801757812502,2.0419729248046874,11.005140661621093,-249.66240458015267,251.55027099236642,251.02627099236642,0
14087,-2.4553116821289063,0.19125504150390624,10.581366967773437,-249.66240458015267,251.55027099236642,236.30871374045802,0
14112,-2.9126041992187504,-1.4200426757812499,9.161605383300781,-249.66240458015267,199.0235534351145,168.2705458015267,0
14137,-5.093721911621094,-1.2907557861328125,7.36834833984375,-249.66240458015267,125.80981297709924,109.48428625954199,0
14162,-5.455246362304687,-3.3306156005859373,5.134558190917968,-249.66240458015267,112.42813358778626,55.86596564885497,0
14187,-5.993941735839844,-4.587571472167968,4.741909118652344,-249.66240458015267,179.96248473282444,-0.3248740458015268,0
14212,-5.668330310058593,-4.2859020629882805,3.9398515625,-249.66240458015267,152.2907290076336,-60.79052290076336,0
14237,-5.457640563964844,-4.692916345214844,2.3764378784179687,-229.65477099236642,112.58080534351146,-112.00426335877863,0
14262,-5.304411657714844,-4.759953991699218,0.9447052856445312,-195.08225190839696,105.08462213740458,-151.8210572519084,0
14287,-4.037878979492188,-4.309844079589843,0.5352968017578125,-157.2959923664122,81.80217938931298,-186.8744923664122,0
14312,-2.8168361328125,-4.750377185058594,-0.3385868041992187,-119.5631679389313,57.00828625954198,-212.96609541984733,0
14337,-2.1512480712890625,-4.721646765136718,-0.6234968017578125,-88.89141221374047,46.313629770992364,-231.50808015267177,0
14362,-0.9828776611328127,-3.9459254272460935,-0.877282177734375,-67.17385496183206,58.19912595419847,-247.03479770992365,0
14387,0.47040274658203085,-2.9475433349609372,-1.1023371337890624,-44.19675572519084,62.428133587786256,-249.24090458015266,0
14412,1.3634399658203122,-2.3777233398437496,-0.7551778930664063,-20.028816793893128,61.88614885496183,-249.24090458015266,0
14437,2.0673352539062497,-1.6427034301757812,-0.6713808349609375,7.4826335877862595,75.71820992366412,-249.24090458015266,0
14462,2.6156074340820306,-0.5413706665039062,-0.26676075439453123,38.574236641221376,87.19149236641222,-249.24090458015266,0
14488,2.8262971801757804,1.4673645263671873,0.2264447875976562,62.940648854961836,115.75637786259543,-249.24090458015266,0
14513,4.270000781249999,3.0571144287109373,0.3605200805664063,90.27652671755725,123.97775190839695,-249.24090458015266,0
14538,5.459919006347655,4.17281240234375,-0.03212899169921875,106.84141221374045,129.1762251908397,-249.24090458015266,0
14563,6.063257824707031,5.444133483886719,0.8010531860351562,123.97881679389313,125.73347709923665,-249.24090458015266,0
14588,6.463089501953124,6.2222490234375,1.9574525878906248,144.44446564885496,130.07698854961833,-249.24090458015266,0
14613,6.058469421386717,7.163170275878906,2.4722059448242186,175.59713740458014,150.42813358778628,-237.60731679389312,0
14638,7.111918151855469,7.94607421875,3.3867909790039064,215.03225190839694,174.07698854961833,-206.11113358778627,0
14663,7.049668908691406,9.645957397460936,4.169694921874999,250.6047709923664,191.63424045801528,-162.37067557251908,0
14688,7.116706555175781,11.151910241699218,4.983723486328125,250.6047709923664,217.57317175572518,-113.92792748091603,0
14713,6.393657653808593,13.043329553222655,5.397920373535156,250.6047709923664,225.29836259541986,-62.72182061068702,0
14738,5.881298498535156,14.024952233886717,5.5535434814453115,250.6047709923664,230.82508015267177,-7.401209923664123,0
14763,5.804684045410155,14.455908532714842,6.161670703124999,250.6047709923664,250.11515648854962,59.15604198473283,0
14788,5.021780102539062,16.732794311523435,7.950139343261718,250.6047709923664,251.55027099236642,128.05680534351146,0
14813,4.631525231933593,18.770259924316406,8.306875390624999,250.6047709923664,251.55027099236642,182.00337022900763,0
14838,3.9707255737304683,19.45739580078125,7.928591528320312,205.1925572519084,251.55027099236642,236.69802671755727,0
14863,5.088817749023437,17.65695615234375,9.741002185058592,92.44446564885496,251.55027099236642,251.02627099236642,0
14888,4.5668817871093745,14.250007189941405,10.581366967773437,-44.34179389312977,251.55027099236642,251.02627099236642,0
14914,3.1088129760742182,9.811157312011717,12.049012585449217,-191.09751908396947,251.55027099236642,251.02627099236642,0
14939,1.3586515624999995,7.009941369628906,13.195835180664062,-249.66240458015267,251.55027099236642,251.02627099236642,0
14964,-0.6740256469726567,4.998811975097656,13.339487280273437,-249.66240458015267,251.55027099236642,251.02627099236642,0
14989,-1.8471844604492191,3.0020477905273437,13.121614929199218,-249.66240458015267,251.55027099236642,251.02627099236642,0
15014,-2.910209997558594,1.3955384765624999,11.488769396972655,-249.66240458015267,200.74874427480916,210.73619465648855,0
15039,-5.280469641113282,1.7019962890624998,9.614109497070311,-249.66240458015267,135.06935496183206,157.0110038167939,0
15064,-5.969999719238281,-0.9076835205078124,7.519183044433593,-249.66240458015267,106.03882061068703,105.87359923664123,0
15089,-6.903738366699218,-2.5501058593749995,5.891125915527343,-249.66240458015267,138.7411106870229,57.6140572519084,0
15114,-7.282022229003906,-2.9523317382812495,4.4378455078125,-249.66240458015267,187.09225572519085,1.9346679389312977,0
15139,-6.403350219726562,-3.5197575317382808,3.8321124877929686,-249.66240458015267,151.58080534351146,-49.3859427480916,0
15164,-6.379408203125,-3.787908117675781,2.1968727539062503,-248.68530534351146,111.12279007633589,-87.56151526717557,0
15189,-5.893385266113281,-4.29308466796875,1.911962756347656,-216.76927480916032,120.65714122137405,-116.20273664122136,0
15214,-4.875849560546875,-5.013739367675781,1.902385949707031,-169.731106870229,98.29836259541985,-143.6302175572519,0
15239,-4.267722338867188,-4.410400549316406,0.3461548706054687,-122.0746183206107,56.71057633587786,-170.03479770992365,0
15264,-3.7386037719726564,-4.4271599609375,-0.7144764648437499,-90.44866412213742,29.466301526717558,-192.34014122137404,0
15289,-2.4289754638671877,-5.324985583496093,-0.5564591552734375,-73.26545801526719,49.71057633587786,-210.9355610687023,0
15314,-1.0642805175781254,-4.7360119750976555,-0.30027957763671875,-45.8837786259542,44.565538167938925,-228.7447213740458,0
15340,-0.2574345581054689,-4.053664501953125,-0.5061809204101563,-19.250190839694657,50.36706488549618,-247.31724045801528,0
15365,1.0090981201171871,-3.5173633300781244,-0.5205461303710938,10.826145038167938,49.939583969465644,-249.24090458015266,0
15390,2.0721236572265624,-3.129502661132812,-0.7384184814453125,42.78797709923664,49.000652671755724,-249.24090458015266,0
15415,2.622790039062499,-2.313079895019531,-0.25239554443359374,73.16202290076335,64.99301908396947,-249.24090458015266,0
15440,3.412876586914062,-1.6043962036132813,0.12109991455078123,104.3986641221374,74.3288969465649,-249.24090458015266,0
15465,3.9156589355468743,-0.5557358764648438,0.4323461303710937,132.74217557251907,81.23729389312977,-249.24090458015266,0
15490,3.8941111206054684,1.3069530151367186,0.9782241088867187,154.268893129771,92.26019465648855,-249.24090458015266,0
15515,4.1359254882812495,3.236679553222656,1.375661584472656,166.39103053435113,117.86324809160305,-249.24090458015266,0
15540,4.602794812011718,5.9995882690429685,2.0867394775390626,173.20019083969464,137.16859160305344,-249.24090458015266,0
15565,5.802289843749999,7.8383351440429685,3.190466442871094,186.95591603053435,146.91668320610688,-249.24090458015266,0
15590,5.931576733398436,9.39456622314453,3.973370385742187,210.1543893129771,127.86324809160305,-249.24090458015266,0
15615,5.538927661132813,11.338657971191404,4.758668530273437,233.2841603053435,141.01591984732823,-248.09586641221372,0
15640,6.151843286132812,13.060088964843748,3.540019885253906,250.6047709923664,152.28309541984734,-207.13403435114503,0
15665,5.704127575683594,14.743212731933593,3.544808288574219,250.6047709923664,185.69530916030536,-144.40884351145039,0
15690,5.558081274414062,15.909188940429686,4.289405004882812,250.6047709923664,210.16095801526717,-63.46991221374046,0
15715,5.5054088378906245,17.302614306640624,5.263845080566406,250.6047709923664,247.01591984732823,22.407950381679388,0
15740,4.562093383789062,17.328950524902343,6.221525744628906,250.6047709923664,251.55027099236642,115.24764503816795,0
15766,4.4567485107421865,18.05678782958984,7.792122033691405,250.6047709923664,251.55027099236642,202.5224541984733,0
15791,4.60758321533203,19.414300170898436,8.766562109374998,235.6429389312977,251.55027099236642,251.02627099236642,0
15816,4.088041455078124,18.284236987304684,9.350747314453125,193.59713740458014,251.55027099236642,251.02627099236642,0
15841,3.3865403686523434,17.13741439208984,9.944509326171874,117.69637404580152,251.55027099236642,251.02627099236642,0
15866,3.4966736450195306,14.209305761718749,11.354694104003904,19.52080152671756,251.55027099236642,251.02627099236642,0
15891,1.8518571044921872,10.615609069824217,11.692276538085936,-88.89904580152673,251.55027099236642,251.02627099236642,0
15916,-0.37475043945312514,6.921355908203124,11.910148889160155,-217.40286259541986,251.55027099236642,251.02627099236642,0
15941,-2.175190087890625,4.139293579101563,11.694670739746092,-249.66240458015267,251.55027099236642,251.02627099236642,0
15966,-4.344336791992188,0.9573995727539062,12.22618350830078,-249.66240458015267,251.55027099236642,251.02627099236642,0
15991,-5.381026110839844,-0.9555675537109374,10.84712335205078,-249.66240458015267,251.55027099236642,181.7819961832061,0
16016,-6.901344165039062,-0.9675385620117187,9.120903955078123,-249.66240458015267,251.55027099236642,91.85833206106871,0
16041,-7.231743994140625,-1.8940946044921876,7.217513635253906,-249.66240458015267,251.55027099236642,13.247645038167938,0
16066,-7.286810632324219,-2.0497177124023436,5.960557763671875,-249.66240458015267,126.28309541984733,-34.485179389312975,0
16091,-6.4105328247070315,-2.7607956054687497,4.188848535156249,-249.66240458015267,112.7792786259542,-69.75235496183205,0
16116,-6.369831396484376,-4.048876098632812,2.175324938964844,-249.66240458015267,156.08462213740458,-101.53861450381679,0
16141,-5.3977855224609375,-4.065635510253906,1.2942587280273437,-249.66240458015267,166.35179770992366,-132.26380534351145,0
16166,-4.200684692382812,-3.854945764160156,0.8728792358398436,-211.32652671755727,139.94721755725192,-158.6836526717557,0
16192,-3.5446734375,-4.29308466796875,-0.6330736083984375,-158.17385496183206,119.64187404580153,-179.75998854961833,0
16217,-2.986824450683594,-4.393641137695312,-1.2747196533203125,-117.68530534351146,134.80217938931298,-196.54624809160305,0
16242,-1.5910048828125003,-4.103942736816406,-0.4726620971679687,-75.95248091603054,145.71820992366412,-209.83632442748092,0
16267,-0.5614981689453127,-3.500603918457031,-0.2691549560546875,-25.98301526717557,128.3975992366412,-221.6149503816794,0
16292,1.2221820678710933,-3.1079548461914057,-0.9227720092773437,20.192557251908397,108.52737022900764,-233.44701145038167,0
16317,1.6603209716796874,-2.602778295898437,-0.9538966308593749,57.719274809160304,106.00828625954199,-244.85159160305344,0
16342,2.227746765136718,-1.9347960327148435,-0.2308477294921875,93.98645038167939,109.29836259541985,-249.24090458015266,0
16367,3.1447260009765623,-1.142315283203125,0.10673470458984374,126.7956106870229,124.35179770992367,-249.24090458015266,0
16392,3.7744010375976558,-0.24927806396484373,0.5664214233398437,158.35286259541985,133.96248473282444,-249.24090458015266,0
16417,4.169444311523437,1.3141356201171874,0.904003857421875,185.32996183206106,144.50446946564887,-249.24090458015266,0
16442,4.483084729003906,3.1840071166992185,1.9981540161132811,204.7956106870229,171.45103435114504,-249.24090458015266,0
16467,4.966713464355468,5.037119201660156,3.156947619628906,229.39103053435113,174.7792786259542,-243.7294541984733,0
16492,5.895663708496094,6.315622888183594,3.2575040893554688,250.6047709923664,168.95485114503816,-227.41647709923663,0
16518,5.562869677734374,8.717007153320312,3.7052197998046874,250.6047709923664,163.7258435114504,-204.16456870229007,0
16543,5.972278161621094,9.327528576660155,4.169694921874999,250.6047709923664,155.32126335877862,-172.9126603053435,0
16568,5.881298498535156,11.063324780273437,6.166459106445312,250.6047709923664,205.24492748091603,-136.49281297709922,0
16593,5.754405810546875,13.92678996582031,6.834441369628905,250.6047709923664,194.1380572519084,-86.89739312977099,0
16618,5.1869800170898435,15.643432556152343,5.924644738769531,250.6047709923664,207.55027099236642,-36.72182061068702,0
16643,3.786372045898437,16.01453381347656,6.815287756347655,250.6047709923664,248.3059961832061,26.01100381679389,0
16668,2.8598160034179685,17.307402709960936,8.179982702636718,250.6047709923664,251.55027099236642,96.84306488549619,0
16693,2.828691381835937,18.145373291015623,8.055484216308592,250.6047709923664,251.55027099236642,159.50718702290078,0
16718,2.325909033203125,18.63139622802734,8.79768673095703,207.62003816793893,251.55027099236642,218.7132938931298,0
16743,3.4966736450195306,17.570764892578122,9.87028907470703,136.91774809160304,251.55027099236642,251.02627099236642,0
16768,3.168668017578124,16.4885857421875,11.120062341308593,61.398664122137404,251.55027099236642,251.02627099236642,0
16793,2.510262561035156,14.91080684814453,12.089714013671873,-20.402862595419847,251.55027099236642,251.02627099236642,0
16818,2.366610461425781,12.147898132324217,12.305192163085936,-98.44103053435116,245.5884389312977,251.02627099236642,0
16843,1.0306459350585935,9.902136975097655,12.72417745361328,-174.731106870229,232.2907290076336,251.02627099236642,0
16868,-0.6692372436523442,7.996352453613281,12.159145861816405,-249.66240458015267,236.77164503816795,251.02627099236642,0
16893,-2.179978491210938,5.85833037109375,11.627633093261718,-249.66240458015267,249.8174465648855,251.02627099236642,0
16919,-3.5662212524414065,3.684395263671875,10.976410241699218,-249.66240458015267,251.55027099236642,244.102606870229,0
16944,-5.136817541503906,2.6931957763671877,10.564607556152342,-249.66240458015267,251.55027099236642,189.79726335877862,0
16969,-5.823953417968751,0.9861299926757812,9.439332775878906,-249.66240458015267,225.51973664122139,125.58352290076336,0
16994,-7.27962802734375,-0.5246112548828125,8.244626147460936,-249.66240458015267,190.78691221374046,63.03390458015267,0
17019,-7.916485668945312,-1.336245617675781,5.962951965332031,-249.66240458015267,213.61897328244274,-2.7370877862595417,0
17044,-8.368989782714843,-1.6905874633789062,3.1593418212890625,-249.66240458015267,190.07698854961833,-67.01953053435115,0
17069,-7.641152478027344,-2.0616887207031245,2.639800061035156,-249.66240458015267,173.15332442748092,-115.48517938931298,0
17094,-6.001124340820312,-3.3689228271484373,2.9654114868164063,-249.66240458015267,179.32126335877862,-157.58441603053436,0
17119,-4.804023510742187,-2.1550625854492185,0.6837373046874999,-243.19675572519085,115.22202671755726,-196.90502671755726,0
17144,-3.8391602416992185,-2.3968769531249996,-1.032905285644531,-194.6242366412214,69.6113396946565,-227.31724045801528,0
17169,-2.8288071411132814,-2.995427368164062,-0.8126387329101562,-162.13568702290078,72.91668320610687,-249.24090458015266,0
17194,-2.4624942871093753,-3.7256588745117183,-0.7384184814453125,-143.42576335877862,156.2525610687023,-249.24090458015266,0
17219,-0.37953884277343786,-2.4160305664062496,-1.298661669921875,-85.8837786259542,126.34416412213741,-249.24090458015266,0
17244,1.152750219726562,-2.2125234252929684,-2.220429309082031,-37.25019083969465,96.45103435114504,-249.24090458015266,0
17269,0.683486694335937,-1.9754974609374998,-1.3872471313476562,-3.86087786259542,100.33653053435116,-249.24090458015266,0
17295,1.6435615600585933,-1.3123036010742186,-1.0807893188476563,24.849045801526717,141.07698854961833,-249.24090458015266,0
17320,2.680250878906249,0.2630810913085937,-0.3721056274414062,60.45973282442748,184.93958396946564,-249.24090458015266,0
17345,3.4440012084960934,1.9126860351562498,0.37009688720703127,103.49790076335877,192.97011832061068,-240.20273664122138,0
17370,4.188597924804687,3.4042736694335938,0.2958766357421875,142.3070610687023,199.11515648854962,-230.98136259541985,0
17395,4.9810786743164055,5.020359790039063,1.634235363769531,172.00935114503815,224.5121030534351,-224.76762213740457,0
17420,5.40006396484375,6.722637170410156,3.161736022949219,206.0780534351145,234.28309541984734,-212.6836526717557,0
17445,5.831020263671875,8.00353505859375,3.659729968261719,242.87958015267176,230.82508015267177,-191.94319465648854,0
17470,5.725675390624999,9.696235632324218,4.8568307983398435,250.6047709923664,247.0998893129771,-159.97372900763358,0
17495,4.79911934814453,11.582866540527343,6.23110255126953,250.6047709923664,251.55027099236642,-115.69128625954198,0
17520,4.904464221191406,13.304297534179685,7.890284301757812,250.6047709923664,251.55027099236642,-65.45464503816794,0
17545,4.540545568847656,14.599560632324216,8.261385559082031,250.6047709923664,251.55027099236642,-9.416477099236642,0
17570,3.283589697265625,16.299443811035154,7.622133715820312,250.6047709923664,251.55027099236642,50.34688167938932,0
17595,2.3953408813476553,17.870040100097654,7.124139770507812,250.6047709923664,251.55027099236642,112.49191984732825,0
17620,1.8494629028320304,19.43105958251953,8.031542199707031,250.6047709923664,251.55027099236642,180.5224541984733,0
17645,1.689051391601562,19.74410144958496,8.972463452148437,250.6047709923664,251.55027099236642,246.82779770992366,0
17671,1.207816857910156,19.74410144958496,9.480034204101562,194.4520992366412,251.55027099236642,251.02627099236642,0
17696,1.1647212280273433,19.74410144958496,10.262938146972655,91.16202290076335,251.55027099236642,251.02627099236642,0
17721,1.2772487060546869,18.214805139160156,11.282868054199218,-18.34179389312977,251.55027099236642,251.02627099236642,0
17746,-0.07786943359375043,14.039317443847654,12.575736950683593,-123.7158396946565,251.55027099236642,251.02627099236642,0
17771,-1.253422448730469,10.30196865234375,13.387371313476562,-219.7387404580153,251.55027099236642,251.02627099236642,0
17796,-3.513548815917969,6.887837084960937,13.305968457031248,-249.66240458015267,251.55027099236642,251.02627099236642,0
17821,-5.1918841796875,4.847977270507813,12.46320947265625,-249.66240458015267,251.55027099236642,251.02627099236642,0
17846,-7.080909289550781,4.32604130859375,11.100908728027342,-249.66240458015267,251.55027099236642,195.4613854961832,0
17871,-7.818323400878906,1.0459850341796875,9.192730004882812,-249.66240458015267,251.55027099236642,113.34688167938931,0
17896,-8.462363647460936,-0.13675058593749997,7.835217663574218,-249.66240458015267,251.55027099236642,26.484286259541985,0
17921,-8.632351965332031,-0.9603559570312499,6.52558935546875,-249.66240458015267,188.13042366412213,-43.21037022900763,0
17946,-8.316317346191406,-1.3027267944335936,5.436227600097656,-249.66240458015267,105.69530916030534,-89.14930152671755,0
17971,-8.534189697265624,-2.0114104858398436,1.9263279663085937,-249.66240458015267,123.56553816793894,-124.05006488549618,0
17996,-6.930074584960938,-2.9882447631835936,1.612687548828125,-249.66240458015267,179.4968358778626,-156.59968320610687,0
18022,-6.128017028808594,-3.5341227416992185,2.56079140625,-249.66240458015267,153.45103435114504,-178.22563740458014,0
18047,-4.708255444335938,-3.864522570800781,0.4969895751953124,-223.70057251908398,129.6495076335878,-192.92792748091603,0
18072,-3.101746130371094,-3.9052239990234368,0.06842747802734374,-181.2959923664122,130.59607251908398,-205.7294541984733,0
18097,-1.8783090820312502,-4.731223571777344,-0.42477806396484374,-141.7540076335878,150.09225572519085,-217.88975954198472,0
18122,-0.5806517822265627,-4.609119287109374,-0.8820705810546875,-98.83797709923665,169.03118702290078,-227.7981564885496,0
18147,0.20943476562499974,-3.672986437988281,-0.7096880615234374,-45.41049618320611,152.6495076335878,-232.37067557251908,0
18172,0.9181184570312495,-4.139855761718749,-0.609131591796875,10.413931297709924,122.44340076335878,-231.11876717557251,0
18197,1.9332599609374999,-3.1031664428710934,-0.46069108886718746,56.18492366412214,125.4586679389313,-229.16456870229007,0
18222,2.1990163452148437,-2.1790046020507807,0.185743359375,97.67347328244274,128.22202671755724,-227.00426335877862,0
18247,3.4583664184570306,-1.566088977050781,0.046879663085937495,136.16202290076336,137.008286259542,-220.41647709923663,0
18272,4.198174731445312,-0.9723269653320312,0.5903634399414062,170.34522900763358,151.01591984732823,-212.85922519083968,0
18297,4.214934143066405,0.13618840332031248,1.2104616699218749,202.7192748091603,162.29836259541986,-203.56151526717557,0
18322,3.7456706176757804,1.8600135986328123,2.0125192260742186,233.97881679389312,165.26019465648855,-195.6149503816794,0
18347,3.5373750732421874,3.5144069458007814,2.50333056640625,250.6047709923664,170.52737022900763,-189.2867061068702,0
18373,3.3242911254882808,5.458498693847656,3.5232604736328126,250.6047709923664,200.97011832061068,-184.56151526717557,0
18398,2.811931970214843,8.50152900390625,7.049919519042968,250.6047709923664,251.55027099236642,-169.5386145038168,0
18423,6.0488926147460935,10.452803356933593,8.40264345703125,250.6047709923664,251.55027099236642,-138.11876717557251,0
18448,5.534139257812499,12.64349787597656,8.232655139160155,250.6047709923664,218.54263740458015,-97.45464503816794,0
18473,3.5206156616210933,14.398447692871093,7.39947296142578,250.6047709923664,228.59607251908398,-32.7065534351145,0
18498,2.3953408813476553,15.935525158691405,8.309269592285155,250.6047709923664,251.55027099236642,54.331614503816795,0
18523,1.0258575317382808,17.77906043701172,9.92056730957031,250.6047709923664,251.55027099236642,143.24001145038167,0
18548,0.3435100585937496,18.526051354980467,9.700300756835937,247.29179389312978,251.55027099236642,208.23237786259543,0
18573,0.5134983764648435,17.85567489013672,10.150410668945312,183.99408396946563,251.55027099236642,251.02627099236642,0
18598,0.2740782104492183,16.625055236816404,12.257308129882812,123.18492366412214,251.55027099236642,251.02627099236642,0
18623,-0.6812082519531253,16.04805263671875,13.435255346679686,72.72690839694656,239.0998893129771,251.02627099236642,0
18648,-0.9493588378906253,14.48942735595703,12.688264428710937,9.329961832061068,210.61897328244274,251.02627099236642,0
18673,-2.0698452148437503,12.823063000488279,13.595666857910155,-72.25782442748093,211.03118702290078,251.02627099236642,0
18698,-3.209485205078125,10.206200585937498,12.872617956542967,-165.68530534351146,214.03118702290078,251.02627099236642,0
18723,-4.792052502441406,7.187112292480468,12.295615356445312,-249.66240458015267,239.99301908396947,251.02627099236642,0
18749,-5.5462260253906255,4.953322143554687,11.603691076660155,-249.66240458015267,251.55027099236642,251.02627099236642,0
18774,-7.238926599121093,1.7043904907226561,10.856700158691405,-249.66240458015267,251.55027099236642,209.75909541984734,0
18799,-8.110416003417969,-0.6275619262695312,9.88944268798828,-249.66240458015267,251.55027099236642,121.55298854961832,0
18824,-8.337865161132813,-1.1111906616210938,8.048301611328124,-249.66240458015267,251.55027099236642,38.58352290076336,0
18849,-9.056125659179688,-1.1758341064453124,6.032383813476562,-249.66240458015267,205.65714122137405,-32.3859427480916,0
18874,-8.222943481445313,-2.911630310058593,4.3516542480468745,-249.66240458015267,114.4586679389313,-73.78288931297709,0
18899,-7.3299062622070315,-3.419201062011718,2.8073941772460937,-249.66240458015267,135.2525610687023,-108.44701145038168,0
18924,-7.169494750976562,-4.163797778320312,1.5432557006835936,-249.66240458015267,116.15332442748092,-141.18746946564886,0
18949,-6.3339183715820315,-5.7296056640624995,0.7531691528320312,-249.66240458015267,169.0235534351145,-160.6683854961832,0
18974,-5.335536279296875,-4.628272900390624,1.6605715820312499,-195.67003816793894,166.7029427480916,-175.69891984732823,0
18999,-3.4225691528320317,-4.575600463867187,0.9854067138671874,-131.49446564885497,135.4205,-188.48517938931298,0
19024,-3.0299200805664066,-5.253159533691406,-0.0488884033203125,-73.08225190839696,107.4205,-199.63785114503816,0
19049,-1.741839587402344,-4.613907690429687,-0.46069108886718746,-34.51736641221374,137.14569083969465,-212.15693511450382,0
19074,-0.9852718627929691,-3.6490444213867184,0.24559840087890625,13.620038167938931,127.07698854961832,-221.2180038167939,0
19099,0.3339332519531246,-2.9906389648437495,0.6334590698242187,73.42919847328244,51.96248473282442,-228.13403435114503,0
19125,1.590889123535156,-3.6107371948242184,0.5855750366210937,112.475,8.741110687022902,-238.92029389312978,0
19150,2.194227941894531,-3.1821750976562497,0.0947636962890625,138.9101145038168,-14.22835496183206,-249.24090458015266,0
19175,3.7193343994140617,-2.5094044311523436,-0.7025054565429687,142.67347328244273,23.634240458015267,-249.24090458015266,0
19200,4.262818176269531,-1.2979383911132811,0.33897226562499994,137.3986641221374,110.42813358778626,-249.24090458015266,0
19225,3.7959488525390617,0.4139157958984375,2.2256031738281252,163.67347328244273,144.4968358778626,-249.24090458015266,0
19250,4.205357336425781,1.733120910644531,2.9462578735351563,199.39103053435113,151.2525610687023,-249.24090458015266,0
19275,5.050510522460937,4.316464501953125,3.3341185424804687,217.23072519083968,187.33653053435114,-236.73708778625954,0
19300,4.528574560546875,6.210278015136718,4.507277355957031,235.62003816793893,208.38996564885497,-218.63785114503816,0
19325,3.862986499023437,8.377030517578124,5.247085668945312,250.6047709923664,184.16095801526717,-194.52334732824428,0
19350,3.6068069213867178,9.581313952636718,5.706772387695312,250.6047709923664,202.8556145038168,-168.13403435114503,0
19375,2.83347978515625,11.039382763671874,7.421020776367187,250.6047709923664,245.7029427480916,-123.2180038167939,0
19400,2.9292478515625,12.399289306640624,8.177588500976562,250.6047709923664,227.24492748091603,-65.3477748091603,0
19425,3.2716186889648435,13.51259307861328,8.941338830566405,250.6047709923664,240.16859160305344,3.4537519083969466,0
19450,3.937206750488281,15.166986425781248,9.326805297851562,250.6047709923664,251.55027099236642,86.07207251908397,0
19475,3.039381127929687,15.846939697265624,10.399407641601561,227.74217557251907,251.55027099236642,181.690393129771,0
19501,1.8470687011718745,17.01770430908203,11.407366540527343,179.95591603053435,251.55027099236642,251.02627099236642,0
19526,1.1742980346679683,17.506121447753905,12.886983166503905,118.88721374045801,251.55027099236642,251.02627099236642,0
19551,0.233376782226562,16.778284143066404,13.3251220703125,69.61240458015267,240.20675954198472,251.02627099236642,0
19576,-1.2079326171875002,17.27388388671875,13.16471055908203,3.13912213740458,210.13042366412213,251.02627099236642,0
19601,-2.1081524414062502,14.82700979003906,13.382582910156248,-92.83797709923665,241.32126335877862,251.02627099236642,0
19626,-2.756981091308594,10.239719409179687,14.53658811035156,-213.7540076335878,251.55027099236642,251.02627099236642,0
19651,-5.543831823730469,6.4856112060546875,13.4783509765625,-249.66240458015267,251.55027099236642,251.02627099236642,0
19676,-7.691430712890625,2.630946533203125,12.37941241455078,-249.66240458015267,251.55027099236642,245.8735992366412,0
19701,-9.242873388671875,-0.9340197387695313,10.804027722167968,-249.66240458015267,251.55027099236642,141.00337022900763,0
19726,-10.576443713378906,-1.7887497314453125,8.292510180664062,-249.66240458015267,251.55027099236642,29.652225190839694,0
19751,-10.483069848632812,-1.9850742675781248,6.911055822753905,-249.66240458015267,251.55027099236642,-68.81342366412214,0
19776,-9.817481787109376,-2.447155187988281,5.5343898681640615,-249.66240458015267,251.55027099236642,-140.3325076335878,0
19801,-9.02978944091797,-2.552500061035156,3.4849532470703126,-249.66240458015267,134.42813358778628,-178.3325076335878,0
19826,-7.966763903808594,-3.072041821289062,0.291088232421875,-249.66240458015267,144.3823320610687,-203.0653320610687,0
19851,-7.39454970703125,-2.7799492187499997,-0.2595781494140625,-249.66240458015267,166.15332442748092,-224.05769847328244,0
19877,-5.270892834472656,-3.845368957519531,-0.020157983398437503,-210.2959923664122,159.91668320610688,-235.79052290076336,0
19902,-3.302859069824219,-3.5365169433593744,-1.3800645263671873,-148.58606870229008,136.80217938931298,-245.4241106870229,0
19927,-2.4337638671875004,-3.4575082885742185,-2.057623596191406,-101.12041984732825,134.99301908396947,-249.24090458015266,0
19952,-1.5933990844726564,-3.749600891113281,-1.4686499877929686,-66.69293893129772,184.06172137404582,-249.24090458015266,0
19977,0.14957972412109344,-3.672986437988281,-1.02093427734375,-4.670038167938932,153.7029427480916,-249.24090458015266,0
20002,0.6092664428710934,-3.7639661010742183,-0.7360242797851563,46.1925572519084,150.1380572519084,-243.5004465648855,0
20027,1.8566455078125,-2.552500061035156,-0.3936534423828125,92.91774809160304,152.95485114503816,-234.85922519083968,0
20052,2.9364304565429684,-1.4415904907226562,-0.22845352783203124,135.681106870229,157.3823320610687,-226.8744923664122,0
20077,3.396117175292968,-1.0154225952148437,0.9806183105468749,176.72690839694656,165.55027099236642,-217.4775458015267,0
20102,3.8031314575195303,-0.25406646728515625,2.146594519042969,216.8719465648855,172.59607251908398,-206.05006488549617,0
20127,4.2676065795898435,1.2063965454101562,2.8887970336914064,250.6047709923664,173.1762251908397,-193.20273664122138,0
20152,4.497449938964843,3.128940478515625,3.8225356811523437,250.6047709923664,185.9853854961832,-180.6302175572519,0
20178,3.621172131347656,5.305269787597656,4.7850047485351554,250.6047709923664,208.48156870229008,-163.71418702290077,0
20203,3.6690561645507804,7.740172875976563,5.62536953125,250.6047709923664,214.9319503816794,-141.75235496183205,0
20228,3.750459020996093,9.01149395751953,5.393131970214843,250.6047709923664,222.93958396946564,-117.81342366412214,0
20253,2.8550276000976558,10.151133947753905,5.318911718749999,250.6047709923664,239.4586679389313,-77.52334732824427,0
20279,0.9348778686523436,11.920448974609373,6.278986584472656,250.6047709923664,251.55027099236642,-18.019530534351144,0
20304,-0.21433892822265666,14.460696936035154,7.921408923339843,250.6047709923664,251.55027099236642,51.759095419847334,0
20329,-0.21433892822265666,16.680121874999998,9.614109497070311,250.6047709923664,251.55027099236642,116.06443893129772,0
20354,-0.7099386718750003,17.92989514160156,9.518341430664062,250.6047709923664,251.55027099236642,170.03390458015267,0
20379,-0.9828776611328127,19.249100256347653,7.660440942382812,250.6047709923664,251.55027099236642,223.11787404580153,0
20404,-0.31010699462890656,19.45739580078125,7.274974475097656,204.4520992366412,251.55027099236642,251.02627099236642,0
20429,-0.9421762329101566,19.74410144958496,11.012323266601562,83.3604961832061,251.55027099236642,251.02627099236642,0
20454,-1.1768079956054691,19.263465466308592,13.75128996582031,-3.502099236641221,251.55027099236642,251.02627099236642,0
20479,-1.579033874511719,17.384017163085936,13.961979711914061,-78.95248091603054,237.26019465648855,251.02627099236642,0
20504,-2.68276083984375,14.544493994140623,13.86621164550781,-168.4868320610687,220.03882061068703,251.02627099236642,0
20529,-3.2597634399414064,10.653916296386717,14.12239122314453,-249.66240458015267,207.24492748091603,251.02627099236642,0
20554,-4.648400402832031,8.274079846191405,12.556583337402342,-249.66240458015267,209.56553816793894,251.02627099236642,0
20579,-5.876625854492188,5.1903481079101565,10.650798815917968,-249.66240458015267,239.2907290076336,251.02627099236642,0
20604,-7.224561389160156,1.5080659545898436,9.422573364257811,-249.66240458015267,251.55027099236642,180.484286259542,0
20629,-7.689036511230468,-1.0417588134765625,8.83599395751953,-249.66240458015267,251.55027099236642,78.68275954198474,0
20655,-8.184636254882811,-1.1375268798828124,6.951757250976562,-249.66240458015267,220.0464541984733,-10.737087786259542,0
20680,-7.940427685546875,-1.3170920043945311,4.950204663085937,-249.66240458015267,164.5884389312977,-78.84395801526718,0
20705,-7.061755676269531,-2.3657523315429683,3.8009878662109373,-249.66240458015267,105.6647748091603,-121.309606870229,0
20730,-6.329129968261719,-3.376105432128906,2.9271042602539064,-249.66240458015267,79.64950763358779,-153.60731679389312,0
20755,-5.529466613769531,-3.7926965209960932,-0.003398571777343755,-249.66240458015267,99.58843893129772,-179.27907251908397,0
20780,-4.545449731445313,-4.4271599609375,-1.2100762084960937,-212.15858778625955,161.3059961832061,-197.6683854961832,0
20805,-3.056256298828125,-4.815020629882812,0.16658974609375,-154.53263358778628,162.74874427480916,-208.897393129771,0
20830,-2.0650568115234376,-3.854945764160156,-0.16620428466796874,-80.33416030534352,92.54263740458016,-215.9355610687023,0
20855,-2.4553116821289063,-4.661791723632812,-0.130291259765625,-39.85324427480916,94.55027099236642,-222.50808015267177,0
20880,-1.2653934570312502,-4.314632482910156,-0.29549117431640626,-16.265458015267175,137.27546183206107,-228.4012099236641,0
20905,0.4033651000976559,-2.597989892578125,-0.48463310546874994,13.61240458015267,152.60370610687022,-239.67601908396946,0
20930,0.8175619873046873,-2.0209872924804686,0.9135806640624999,53.635305343511455,136.00065267175572,-249.24090458015266,0
20955,1.724964416503906,-1.7791729248046875,0.9351284790039062,92.2841603053435,138.19912595419848,-249.24090458015266,0
20980,2.7089812988281246,-1.4104658691406249,1.2152500732421874,123.94828244274808,159.4434007633588,-249.24090458015266,0
21005,2.254082983398437,0.5767215087890625,2.4506581298828127,152.0398854961832,187.84798091603054,-245.2332709923664,0
21031,3.0250159179687497,2.5998219116210937,3.30778232421875,187.23835877862595,195.3975992366412,-233.55388167938932,0
21056,4.085647253417968,4.754603405761719,4.052379040527343,218.8490458015267,202.71057633587787,-225.90502671755726,0
21081,2.6946160888671873,7.689894641113281,4.306164416503906,248.78797709923663,214.13042366412213,-214.75235496183205,0
21106,3.5014620483398433,9.250914123535155,5.903096923828125,250.6047709923664,222.33653053435114,-193.30197328244273,0
21131,3.8366502807617184,10.112826721191405,6.9421804443359365,250.6047709923664,228.91668320610688,-151.9355610687023,0
21156,2.941218859863281,11.891718554687499,7.3108875,250.6047709923664,236.7411106870229,-88.05769847328244,0
21181,2.1822569335937496,13.69694660644531,6.829652966308593,250.6047709923664,248.6113396946565,-8.645484732824428,0
21206,1.0019155151367185,15.090371972656248,7.083438342285156,250.6047709923664,251.55027099236642,71.66749236641222,0
21231,-0.36517363281250015,15.676951379394529,8.771350512695312,250.6047709923664,251.55027099236642,152.75909541984734,0
21256,-0.8751385864257815,17.652167749023437,9.719454370117187,250.6047709923664,251.55027099236642,230.99573664122138,0
21281,0.21661737060546837,18.221987744140623,9.482428405761718,216.34522900763358,251.55027099236642,251.02627099236642,0
21306,-0.3915098510742192,19.74410144958496,11.033871081542967,119.13912213740457,251.55027099236642,251.02627099236642,0
21331,-1.6819845458984377,19.74410144958496,13.37540030517578,6.856679389312977,251.55027099236642,251.02627099236642,0
21356,-3.0514678955078125,17.55400548095703,14.25646651611328,-89.47156488549619,251.55027099236642,251.02627099236642,0
21381,-3.7026907470703128,14.75039533691406,15.278790625,-186.99064885496185,251.55027099236642,251.02627099236642,0
21407,-4.0091485595703125,11.90368956298828,15.235694995117186,-249.66240458015267,251.55027099236642,251.02627099236642,0
21432,-6.384196606445313,8.001140856933594,13.100067114257811,-249.66240458015267,251.55027099236642,251.02627099236642,0
21457,-8.175059448242187,3.9693052612304687,11.5629896484375,-249.66240458015267,251.55027099236642,198.3697824427481,0
21482,-9.606792041015625,0.2702636962890625,9.963662939453124,-249.66240458015267,251.55027099236642,103.85069847328245,0
21507,-9.609186242675781,-1.76480771484375,9.314834289550781,-249.66240458015267,251.55027099236642,14.209477099236642,0
21532,-9.939586071777343,-0.0840781494140625,6.937392041015625,-249.66240458015267,204.26019465648855,-60.14166793893129,0
21557,-10.241255480957031,-1.3865238525390624,4.073926855468749,-249.66240458015267,143.32126335877862,-111.24090458015267,0
21582,-9.264421203613281,-3.7184762695312497,3.279051904296875,-249.66240458015267,158.68004198473284,-148.7065534351145,0
21607,-7.909303063964844,-3.3018851806640623,1.2056732666015624,-249.66240458015267,149.01591984732823,-180.11113358778627,0
21632,-7.542990209960937,-3.895647192382812,0.06363907470703124,-236.0135496183206,154.67240839694657,-202.92029389312978,0
21657,-5.699454931640625,-4.278719458007812,0.9878009155273437,-176.26545801526717,156.8556145038168,-215.5920496183206,0
21682,-4.219838305664062,-4.089577526855468,-0.6258910034179688,-105.10515267175573,112.47393511450382,-222.88975954198472,0
21707,-3.5590386474609375,-4.573206262207031,-1.4279485595703125,-51.47156488549618,86.61897328244275,-227.0805992366412,0
21732,-2.7641636962890628,-4.477438195800781,-1.8900294799804687,-17.532633587786258,105.45103435114504,-226.92792748091603,0
21758,-2.019566979980469,-4.226047021484375,-0.5277287353515625,13.368129770992367,131.07698854961833,-224.94319465648854,0
21783,-1.215115222167969,-4.012963073730468,-0.003398571777343755,56.5513358778626,126.48156870229008,-222.79052290076336,0
21808,0.6715156860351557,-2.8134680419921874,0.0947636962890625,98.52843511450381,117.3059961832061,-224.84395801526716,0
21833,1.2628834960937496,-2.4615203979492186,0.29348243408203123,129.887213740458,127.0998893129771,-225.9126603053435,0
21858,1.9619903808593744,-2.0185930908203122,0.7411981445312499,162.17729007633588,132.92431679389313,-221.86685877862595,0
21883,2.4264655029296867,-0.9100777221679688,1.6773309936523437,189.06278625954198,152.80217938931298,-214.0653320610687,0
21908,2.493503149414062,0.57193310546875,2.6613478759765625,216.09332061068702,169.4434007633588,-200.85922519083968,0
21933,3.0657173461914056,2.0707033447265624,3.7171908081054688,241.78034351145038,185.3823320610687,-183.54624809160305,0
21958,3.805525659179687,4.065073327636719,4.413903491210937,250.6047709923664,202.78691221374046,-165.7447213740458,0
21983,3.2548592773437495,6.782492211914063,4.626987438964843,250.6047709923664,195.09225572519085,-148.71418702290077,0
22008,2.007480212402343,7.740172875976563,5.788175244140624,250.6047709923664,222.57317175572518,-127.21037022900762,0
22033,0.9540314819335936,8.76249698486328,8.230260937499999,250.6047709923664,251.0998893129771,-87.05006488549618,0
22058,2.0577584472656243,11.16388125,9.439332775878906,250.6047709923664,251.55027099236642,-39.20273664122137,0
22083,2.4504075195312494,12.607584851074217,10.267726550292968,250.6047709923664,227.90141603053436,9.583522900763358,0
22108,0.5877186279296871,13.045723754882811,10.054642602539062,250.6047709923664,232.26019465648855,71.35451526717557,0
22134,-1.1696253906250003,14.611531640624998,10.507146716308593,248.41393129770992,251.55027099236642,147.85069847328245,0
22159,-1.3348253051757815,15.65779776611328,11.36427091064453,203.5131679389313,251.55027099236642,226.0644389312977,0
22184,-2.124911853027344,16.457461120605466,12.367441406249998,144.9864503816794,251.55027099236642,251.02627099236642,0
22209,-2.565444958496094,16.682516076660153,13.0186642578125,75.26125954198473,251.55027099236642,251.02627099236642,0
22234,-3.676354528808594,17.06079993896484,14.091266601562499,-3.7921755725190835,251.55027099236642,251.02627099236642,0
22259,-5.2110377929687495,16.929118847656248,15.594825244140624,-70.89904580152673,223.09225572519085,251.02627099236642,0
22284,-5.287652246093749,15.492597851562499,15.783967175292968,-134.58606870229008,182.71820992366412,251.02627099236642,0
22309,-5.273287036132812,13.115155603027342,14.756854663085937,-218.0364503816794,176.96248473282444,251.02627099236642,0
22334,-6.6906544189453125,8.748131774902342,13.79677979736328,-249.66240458015267,212.77164503816795,251.02627099236642,0
22359,-8.318711547851564,5.6620058349609375,12.178299475097655,-249.66240458015267,251.55027099236642,228.56825572519085,0
22384,-10.023383129882813,2.475323425292969,10.610097387695312,-249.66240458015267,251.55027099236642,137.7819961832061,0
22409,-11.265973791503907,-0.6969937744140625,9.271738659667967,-249.66240458015267,251.55027099236642,34.45375190839695,0
22434,-11.452721520996093,-0.9459907470703124,7.909437915039062,-249.66240458015267,251.55027099236642,-67.04243129770992,0
22459,-11.203724548339842,0.12421739501953125,5.045972729492187,-249.66240458015267,236.1380572519084,-149.82869083969464,0
22485,-10.291533715820313,-1.7049526733398437,3.554385095214844,-249.66240458015267,145.2372938931298,-198.07296564885496,0
22510,-8.776004064941407,-3.4072300537109372,1.7156382202148437,-249.66240458015267,123.43576717557252,-225.1264007633588,0
22535,-7.851842224121094,-2.679392749023437,-0.14944487304687498,-249.66240458015267,146.13042366412213,-244.99662977099237,0
22560,-6.910920971679688,-3.3138561889648432,0.0947636962890625,-237.25782442748093,155.1914923664122,-249.24090458015266,0
22585,-4.492777294921876,-3.5341227416992185,-0.3385868041992187,-169.19675572519085,128.67240839694657,-249.24090458015266,0
22610,-2.795288317871094,-3.483844506835937,-1.0137516723632811,-115.2043893129771,117.38996564885497,-249.24090458015266,0
22635,-2.141671264648438,-3.9483196289062494,-2.7639130859375,-73.76164122137405,135.07698854961833,-249.24090458015266,0
22660,-1.5335440429687504,-3.878887780761718,-2.265919140625,-39.234923664122135,170.6113396946565,-242.39357633587787,0
22685,-0.16406069335937534,-3.419201062011718,-1.068818310546875,9.184923664122136,162.76401145038167,-231.2180038167939,0
22710,1.2509124877929683,-3.280337365722656,-0.5636417602539062,61.520801526717555,140.99301908396947,-219.05006488549617,0
22735,1.8303092895507804,-2.8541694702148432,-0.6785634399414062,104.82614503816794,138.22202671755727,-205.6836526717557,0
22760,1.6770803833007806,-2.5309522460937495,0.2982708374023437,137.4520992366412,160.09225572519085,-188.16456870229007,0
22785,2.2397177734374996,-1.7217120849609375,1.107510998535156,169.16202290076336,181.2907290076336,-169.309606870229,0
22810,2.6491262573242187,-0.3665939453125,1.9766062011718748,202.65057251908397,193.36706488549618,-154.00426335877862,0
22835,2.629972644042968,1.0555618408203125,3.049208544921875,234.1925572519084,202.4205,-142.7294541984733,0
22861,2.704192895507812,2.1784424194335936,4.157723913574218,250.6047709923664,204.68767557251908,-131.52334732824428,0
22886,2.850239196777343,3.6580590454101563,4.761062731933594,250.6047709923664,206.46630152671756,-123.22563740458016,0
22911,2.534204577636718,5.9995882690429685,5.448198608398437,250.6047709923664,212.07698854961833,-114.92029389312977,0
22936,1.7584832397460932,7.711442456054687,6.286169189453124,250.6047709923664,225.55790458015267,-102.9508282442748,0
22961,1.3778051757812495,9.75130227050781,7.622133715820312,250.6047709923664,245.63424045801528,-81.67601908396946,0
22986,0.9037532470703122,11.633144775390624,9.408208154296874,250.6047709923664,251.55027099236642,-46.76762213740458,0
23011,0.635602661132812,13.49343946533203,10.148016467285155,250.6047709923664,251.55027099236642,6.094973282442748,0
23036,-0.26461716308593797,14.870105419921874,9.769732604980469,250.6047709923664,251.55027099236642,72.11787404580153,0
23061,-1.1169529541015628,15.904400537109373,9.815222436523436,250.6047709923664,251.55027099236642,144.14077480916032,0
23086,-1.9549235351562504,17.1781158203125,9.81282823486328,216.45973282442748,251.55027099236642,215.9728358778626,0
23111,-2.2541987426757815,17.889193713378905,9.942115124511718,152.4902671755725,251.55027099236642,251.02627099236642,0
23136,-3.1999083984375,17.958625561523437,10.667558227539061,69.8337786259542,251.55027099236642,251.02627099236642,0
23161,-3.446511169433594,18.257900769042966,11.74734317626953,-20.921946564885495,251.55027099236642,251.02627099236642,0
23186,-4.7776872924804685,17.71920539550781,15.00345743408203,-91.21202290076336,251.55027099236642,251.02627099236642,0
23212,-5.464823168945312,15.471050036621092,16.1981640625,-118.31125954198474,177.68004198473284,251.02627099236642,0
23237,-6.4081386230468755,13.967491394042968,14.392936010742186,-163.9601145038168,151.19912595419848,251.02627099236642,0
23262,-6.853460131835938,11.063324780273437,13.327516271972655,-237.76927480916032,155.74874427480916,251.02627099236642,0
23287,-7.416097521972656,7.761720690917969,11.261320239257811,-249.66240458015267,180.73347709923664,251.02627099236642,0
23312,-7.942821887207031,4.311676098632812,9.836770251464843,-249.66240458015267,236.97011832061068,237.7285610687023,0
23337,-9.343429858398437,0.5264432739257812,7.9549277465820305,-249.66240458015267,251.55027099236642,129.04917175572518,0
23362,-9.843818005371094,-2.0401409057617186,7.2606092651367184,-249.66240458015267,251.55027099236642,9.194209923664122,0
23387,-10.56686690673828,-1.5158107421875,4.957387268066405,-249.66240458015267,251.55027099236642,-103.58441603053434,0
23412,-9.669041284179688,-2.18618720703125,3.834506689453125,-249.66240458015267,231.00065267175572,-179.00426335877862,0
23437,-8.4479984375,-2.7296709838867184,3.0085071166992186,-249.66240458015267,118.71057633587786,-214.92029389312978,0
23462,-7.770439367675781,-3.5053923217773435,0.5185373901367187,-249.66240458015267,131.33653053435114,-234.35540839694656,0
23487,-6.202237280273438,-4.391246936035156,-0.5373055419921875,-249.66240458015267,184.26019465648855,-249.24090458015266,0
23512,-5.048232080078125,-3.040917199707031,-0.6211026000976563,-213.8456106870229,182.52737022900763,-249.24090458015266,0
23537,-2.5534739501953125,-3.730447277832031,-1.5763890624999999,-143.8837786259542,172.97011832061068,-249.24090458015266,0
23562,-1.4689005981445316,-4.159009374999999,-1.451890576171875,-95.50209923664123,190.11515648854962,-249.24090458015266,0
23588,-0.7027560668945316,-3.550882153320312,-0.98262705078125,-39.57843511450382,180.56553816793894,-243.48517938931298,0
23613,0.7098229125976561,-3.0097925781249995,-0.8820705810546875,16.604770992366415,173.97011832061068,-231.84395801526716,0
23638,1.6579267700195306,-2.636297119140625,-0.24760714111328125,65.62767175572519,183.26782824427482,-216.6836526717557,0
23663,2.120007690429687,-2.3657523315429683,0.4682591552734374,111.97118320610686,194.71057633587787,-198.1798358778626,0
23688,2.400129284667968,-1.8845177978515626,1.6749367919921874,157.681106870229,203.33653053435114,-173.16456870229007,0
23713,3.1040245727539055,-0.8262806640625,2.6709246826171875,199.0017175572519,212.99301908396947,-148.1035,0
23738,3.2309172607421868,0.7874112548828124,3.7147966064453124,235.17729007633588,218.2372938931298,-128.65311832061067,0
23763,2.809537768554687,2.5423610717773437,4.962175671386718,250.6047709923664,215.0998893129771,-114.36304198473282,0
23788,2.6156074340820306,3.9788820678710937,6.1353344848632805,250.6047709923664,215.75637786259543,-104.23327099236641,0
23813,2.7329233154296872,5.424979870605469,6.748250109863281,250.6047709923664,198.8174465648855,-93.9508282442748,0
23838,1.966778784179687,7.036277587890625,5.982105578613281,250.6047709923664,185.16095801526717,-82.37830916030534,0
23863,1.133596606445312,8.11845673828125,6.314899609374999,250.6047709923664,224.8937824427481,-61.01953053435114,0
23888,-0.4657301025390628,10.412101928710936,8.194347912597655,250.6047709923664,251.55027099236642,-18.897393129770993,0
23913,-1.3180658935546878,13.514987280273436,10.399407641601561,250.6047709923664,251.55027099236642,36.064438931297715,0
23938,-1.3084890869140628,15.583577514648436,10.696288647460937,250.6047709923664,251.55027099236642,89.71329389312977,0
23964,-2.5295319335937503,16.249165576171873,10.284485961914061,250.6047709923664,251.55027099236642,148.2552786259542,0
23989,-3.2908880615234377,16.069600451660154,9.88944268798828,238.9635496183206,251.55027099236642,216.5224541984733,0
24014,-3.362714111328125,17.527669262695312,10.710653857421875,173.09332061068702,251.55027099236642,251.02627099236642,0
24039,-2.3619378173828127,18.099883459472654,11.59411427001953,89.29179389312976,251.55027099236642,251.02627099236642,0
24064,-4.150406457519532,17.992144384765623,13.042606274414062,0.940648854961832,251.55027099236642,251.02627099236642,0
24089,-5.1344233398437495,18.00650959472656,14.25646651611328,-76.08225190839696,239.33653053435114,251.02627099236642,0
24114,-5.215826196289063,16.6418146484375,14.510251892089842,-142.112786259542,190.3059961832061,251.02627099236642,0
24139,-5.63241728515625,13.728071228027343,13.382582910156248,-209.76164122137405,151.6495076335878,251.02627099236642,0
24164,-5.548620227050781,10.309151257324217,12.626015185546875,-249.66240458015267,132.94721755725192,251.02627099236642,0
24189,-6.1112576171874995,7.531877331542969,10.722624865722656,-249.66240458015267,153.31362977099238,251.02627099236642,0
24214,-7.334694665527343,4.6133455078125,9.808039831542969,-249.66240458015267,209.60370610687022,224.2705458015267,0
24239,-7.3107526489257815,1.273434191894531,8.163223291015624,-249.66240458015267,251.55027099236642,128.7667290076336,0
24264,-8.804734484863282,-1.6762222534179687,6.587838598632812,-249.66240458015267,251.55027099236642,26.804896946564885,0
24289,-9.147105322265624,-3.878887780761718,5.737897009277344,-249.66240458015267,251.55027099236642,-57.622583969465644,0
24314,-8.984299609375,-3.0840128295898435,3.9063327392578127,-249.66240458015267,251.55027099236642,-131.77525572519085,0
24341,-8.318711547851564,-4.333786096191406,2.8289419921875,-249.66240458015267,251.55027099236642,-190.03479770992365,0
24366,-7.028236853027344,-5.028104577636718,2.635011657714844,-249.66240458015267,177.18385877862596,-222.25617175572518,0
24391,-6.482358874511719,-3.6155255981445307,0.19771436767578124,-249.66240458015267,173.3059961832061,-245.03479770992365,0
24416,-5.392997119140626,-3.8884645874023436,-0.9993864624023437,-216.64713740458015,227.41286641221373,-249.24090458015266,0
24441,-3.446511169433594,-4.48462080078125,-0.14705067138671873,-162.51736641221373,251.55027099236642,-249.24090458015266,0
24466,-1.4880542114257815,-4.082394921874999,-0.0488884033203125,-85.37996183206107,234.08462213740458,-249.24090458015266,0
24492,-0.8751385864257815,-3.012186779785156,-0.2308477294921875,-15.891412213740457,199.90141603053436,-249.24090458015266,0
24517,0.29562602539062466,-3.1917519042968747,-0.06325361328125,38.00935114503817,188.92431679389313,-247.82869083969464,0
24542,1.3466805541992182,-3.4670850952148435,0.48023016357421866,85.94828244274808,173.71820992366412,-234.80579007633588,0
24567,2.3139380249023436,-2.1167553588867185,0.9542820922851561,127.72690839694656,165.16095801526717,-219.31724045801528,0
24592,2.0505758422851557,-1.506233935546875,2.1633539306640626,158.6429389312977,175.71057633587787,-200.1035,0
24617,2.3713988647460935,-0.7257241943359375,2.8648550170898437,190.13148854961833,189.09225572519085,-173.71418702290077,0
24642,2.5222335693359366,1.2111849487304687,3.9542167724609376,219.0398854961832,204.66477480916032,-149.34014122137404,0
