t_ms,ax,ay,az,gx,gy,gz,label
0,7.243599243164062,3.0762680419921877,1.1290588134765625,7.192557251908396,5.275461832061069,-1.9431946564885494,0
25,7.408799157714843,3.071479638671875,1.4283340209960937,7.1620229007633585,5.130423664122137,-5.256171755725191,0
50,7.17416739501953,3.0212014038085937,1.7587338500976561,4.261259541984733,-0.8695763358778623,-5.248538167938932,0
75,7.1598021850585924,2.9900767822265624,1.871261328125,-1.837977099236641,10.817446564885497,-3.210370229007634,0
100,7.27711806640625,3.0954216552734377,1.7683106567382811,-1.059351145038168,1.8937824427480918,-2.59968320610687,0
125,6.961083447265625,3.0283840087890623,1.7204266235351562,-1.9982824427480916,0.15332442748091624,-3.202736641221374,0
150,6.855738574218749,2.6836189697265627,1.7443686401367187,-3.089885496183206,8.435767175572519,-4.118767175572519,0
175,7.217263024902343,3.014018798828125,1.8305598999023436,0.6124045801526717,9.336530534351144,-5.592049618320611,0
200,7.451894787597655,2.824876867675781,1.9718177978515625,6.849045801526717,0.7792786259541986,-5.676019083969466,0
225,7.370491931152343,2.9278275390625,1.806617883300781,11.276526717557251,-7.961179389312976,-3.1416679389312976,0
250,7.188532604980469,3.1720361083984376,1.6940904052734373,9.497900763358778,-2.3733931297709923,0.3163473282442748,0
275,7.107129748535155,3.33005341796875,1.3684789794921874,7.444465648854962,-0.3046908396946564,4.117874045801527,0
300,6.707298071289062,3.0762680419921877,0.9590704956054688,7.581870229007634,-2.58713358778626,6.850698473282442,0
325,6.384080847167968,2.75544501953125,0.7986589843749999,12.681106870229007,3.267828244274809,7.331614503816794,0
350,5.85975068359375,2.8368478759765625,1.117087805175781,22.17729007633588,13.954851145038168,4.957568702290076,0
375,5.986643371582031,3.0068361938476564,1.4570644409179687,34.10858778625954,17.38996564885496,-3.546248091603053,0
400,5.646666735839843,3.2965345947265625,1.902385949707031,45.87958015267176,-0.2665229007633587,-17.79052290076336,0
425,5.605965307617187,3.3827258544921874,2.46502333984375,52.59713740458015,-16.480263358778625,-35.737087786259536,0
451,5.58441749267578,3.389908459472656,2.8049999755859374,51.17729007633588,-38.35049236641222,-52.943194656488544,0
476,5.55329287109375,3.4689171142578124,2.6014928344726562,32.62003816793893,-40.40392748091603,-66.05006488549618,0
501,5.941153540039061,3.4713113159179687,2.570368212890625,6.322328244274809,-21.029881679389312,-70.92029389312977,0
526,6.884468994140625,3.6436938354492185,2.5344551879882813,-15.219656488549619,-3.3810267175572517,-69.7065534351145,0
551,7.475836804199218,4.390684753417968,2.3836204833984374,-19.914312977099236,-42.190187022900766,-66.11876717557251,0
576,6.472666308593749,4.247032653808594,2.4027740966796873,-26.570801526717556,-55.258889312977104,-63.79815648854961,0
601,6.750393701171874,4.397867358398438,2.0867394775390626,-37.25782442748091,-40.71690458015267,-67.34014122137404,0
626,6.985025463867188,5.293298779296875,1.9430873779296873,-45.738740458015265,-56.28942366412214,-75.91266030534351,0
651,7.210080419921874,5.484834912109375,1.574380322265625,-59.18912213740458,-67.38102671755725,-82.64548473282443,0
676,7.573999072265624,6.009165075683594,1.2463746948242187,-80.73874045801527,-49.381026717557255,-84.08823282442748,0
701,8.517314526367187,6.93093271484375,1.5432557006835936,-102.73874045801527,-29.495530534351143,-75.52334732824427,0
726,8.893204187011719,8.338723291015624,2.110681494140625,-105.02118320610687,-64.81614122137404,-59.485179389312975,0
751,9.530061828613281,7.65877001953125,2.8457014038085937,-98.76164122137405,-113.31995801526718,-37.248538167938925,0
776,7.902004699707031,8.875024462890623,1.7826758666992186,-112.5631679389313,-116.70163740458015,-7.141667938931299,0
801,8.349720410156248,9.315557568359374,1.4786122558593748,-144.63187022900763,-95.88484351145038,21.24001145038168,0
826,8.809407128906248,10.01945285644531,1.5288904907226561,-159.10515267175572,-118.64820229007633,46.18657633587787,0
852,8.668149230957031,9.653140002441406,0.38446209716796875,-168.76164122137405,-145.04514885496184,77.48428625954199,0
877,7.818207641601561,9.684264624023436,1.1434240234375,-162.51736641221373,-186.6940038167939,112.8965,0
902,7.1214949584960925,9.430479248046874,0.0708216796875,-170.5479007633588,-141.42682824427482,153.49191984732823,0
927,7.389645544433592,8.772073791503905,-0.7001112548828125,-167.53263358778628,-102.60240076335877,191.75909541984734,0
952,7.255570251464843,7.9508626220703125,-1.5261108276367188,-149.36469465648855,-87.48789694656489,220.77436259541986,0
977,7.913975708007812,7.105709436035156,-2.452666870117187,-121.81507633587786,-82.24362213740457,241.07970610687022,0
1002,7.454288989257813,6.183941796875,-3.0991013183593745,-69.96774809160306,-111.75507251908397,251.02627099236642,0
1027,6.740816894531249,4.821641052246093,-3.3744345092773433,-10.555534351145038,-123.83904198473282,251.02627099236642,0
1053,4.667438256835937,3.2342853515625,-3.7766603881835934,39.23835877862596,-85.71690458015267,251.02627099236642,0
1078,4.392105065917968,2.015636706542969,-4.042416772460937,72.50553435114503,-28.991713740458014,251.02627099236642,0
1103,4.669832458496093,1.3931442749023437,-4.291413745117188,109.65057251908397,-29.92301145038168,251.02627099236642,0
1128,3.489491040039062,-0.3019505004882812,-3.513298205566406,150.55896946564886,-38.40392748091603,251.02627099236642,0
1153,2.3115438232421868,-1.1590746948242188,-2.4861856933593747,183.84141221374045,-28.41919465648855,248.55298854961833,0
1178,2.646732055664062,-2.4447609863281246,-2.708846447753906,208.2459923664122,-22.297057251908395,221.28581297709923,0
1203,2.287601806640625,-2.0114104858398436,-1.8349628417968749,239.66583969465648,-59.190187022900766,188.09497328244274,0
1228,0.738553332519531,-2.3873001464843746,-1.1574037719726562,250.6047709923664,-66.15965267175572,151.19420992366412,0
1253,-0.19279111328125031,-3.356951818847656,0.3916447021484375,250.6047709923664,-53.197820610687025,117.43848473282443,0
1278,-0.40826926269531283,-3.6777748413085933,1.363690576171875,250.6047709923664,-56.006980916030535,82.58352290076336,0
1303,0.19985795898437475,-2.6099609008789058,3.214408459472656,250.6047709923664,-63.76270610687023,44.59879007633588,0
1328,-0.029985400390625472,-2.9427549316406245,4.196031140136718,250.6047709923664,-84.87720992366411,6.3621488549618315,0
1353,-0.6357184204101565,-2.1071785522460935,5.192019030761718,250.6047709923664,-83.34285877862595,-23.317240458015267,0
1378,0.8319271972656246,-1.9036714111328126,7.531154052734374,250.6047709923664,-68.71690458015267,-48.95846183206107,0
1403,0.8726286254882809,-1.6642512451171874,8.196742114257813,250.6047709923664,-70.5413320610687,-67.26380534351145,0
1428,1.258095092773437,-0.491092431640625,9.051472106933593,231.3833969465649,-53.694003816793895,-79.13403435114503,0
1454,2.8191145751953117,-0.12956798095703123,9.070625720214842,202.39103053435113,-69.55659923664122,-95.11876717557251,0
1479,4.052128430175781,0.09548697509765625,9.398631347656249,180.3604961832061,-90.59476717557251,-119.45464503816794,0
1504,4.119166076660155,0.4785592407226562,9.314834289550781,149.54370229007634,-79.8619427480916,-139.48517938931298,0
1529,5.115153967285155,1.0100720092773436,8.8048693359375,114.52843511450381,-81.41919465648854,-150.40884351145039,0
1554,6.0488926147460935,2.554332080078125,8.450527490234375,78.5666030534351,-106.85430916030533,-164.83632442748092,0
1579,7.035303698730467,3.224708544921875,8.536718749999999,51.62003816793893,-137.44209541984733,-176.15693511450382,0
1604,7.600335290527343,3.0810564453125,7.653258337402343,26.879580152671757,-161.72453816793893,-180.79052290076336,0
1629,7.475836804199218,4.084226940917969,6.748250109863281,-0.5173664122137405,-168.44209541984733,-181.56914885496184,0
1654,7.7751120117187495,3.801711145019531,6.293351794433593,-29.67003816793893,-161.48026335877861,-173.7065534351145,0
1679,7.866091674804687,4.838400463867187,5.749868017578124,-37.34942748091603,-183.1443854961832,-170.24853816793893,0
1704,7.957071337890624,5.6620058349609375,4.866407604980468,-42.12041984732824,-197.19018702290077,-174.54624809160305,0
1729,7.918764111328124,5.702707263183593,3.583115515136719,-44.15858778625954,-211.93064503816794,-179.05006488549617,0
1754,7.916369909667968,6.612503894042969,2.8145767822265624,-59.21965648854962,-194.96881297709922,-175.59968320610687,0
1779,7.274723864746092,7.69707724609375,1.9813946044921875,-61.46393129770992,-232.31232442748092,-147.92792748091603,0
1804,8.222827722167967,7.220631115722656,0.5520562133789062,-75.0364503816794,-236.4649961832061,-103.92792748091603,0
1829,8.45027687988281,6.952480529785156,0.27911722412109374,-84.04408396946566,-235.77797328244273,-56.866858778625954,0
1854,7.712862768554687,8.154369763183592,-0.25718394775390624,-94.18148854961832,-231.71690458015266,-17.378309160305342,0
1879,5.941153540039061,7.855094555664063,-1.722435363769531,-127.4104961832061,-196.63293511450382,13.606423664122136,0
1905,6.941929833984374,7.9700162353515625,-2.4861856933593747,-167.50209923664121,-164.89247709923663,37.6522251908397,0
1930,7.389645544433592,7.634828002929687,-2.3999944335937498,-190.53263358778628,-176.0680496183206,52.98046946564886,0
1955,6.3314084106445305,8.427308752441405,-2.222823510742187,-214.56316793893131,-163.05278244274808,67.30108015267176,0
1980,7.257964453124999,8.216619006347655,-1.6889165405273436,-238.98301526717557,-119.2207213740458,79.9728358778626,0
2005,7.267541259765625,7.730596069335937,-2.153391662597656,-249.66240458015267,-82.51079770992366,90.54535496183206,0
2030,8.107906042480469,8.750525976562498,-0.7192648681640625,-246.89141221374047,-154.36575954198472,107.2934465648855,0
2055,6.594770593261718,9.207818493652342,-1.2316240234375,-227.16622137404582,-193.1062175572519,138.3697824427481,0
2080,6.242822949218749,9.468786474609374,-2.289861157226562,-237.2425572519084,-114.51079770992366,170.92703435114504,0
2105,6.281130175781249,10.67785831298828,-2.3592930053710934,-219.28835877862596,-110.15201908396946,208.17130916030536,0
2130,7.789477221679687,10.895730664062498,-2.366475610351562,-190.19675572519085,-110.26652290076335,237.50718702290078,0
2155,7.73680478515625,10.665887304687498,-3.0991013183593745,-145.65477099236642,-128.8085076335878,251.02627099236642,0
2180,6.4535126953125,10.129586132812499,-4.097483410644531,-108.68530534351146,-106.81614122137404,251.02627099236642,0
2205,6.4080228637695305,8.604479675292968,-4.463796264648438,-64.89141221374047,-92.19782061068702,251.02627099236642,0
2230,6.611530004882812,6.464063391113281,-4.547593322753906,-3.242557251908397,-107.10621755725191,251.02627099236642,0
2255,6.429570678710937,4.70911357421875,-4.916300378417969,54.58950381679389,-87.45736259541984,251.02627099236642,0
2280,5.388092956542969,3.5168011474609373,-5.08150029296875,108.5895038167939,-73.4268282442748,251.02627099236642,0
2305,4.76081212158203,1.771428137207031,-4.291413745117188,164.13912213740457,-80.80850763358778,251.02627099236642,0
2331,3.075294152832031,1.4601819213867187,-3.6808923217773435,212.6429389312977,-70.47262977099236,251.02627099236642,0
2356,1.2437298828124996,-0.222941845703125,-2.603501574707031,250.6047709923664,-55.03751526717558,230.9728358778626,0
2381,0.3099912353515619,-1.0680950317382811,-1.9929801513671874,250.6047709923664,-39.18255343511451,206.47665267175572,0
2406,-0.583045983886719,-2.2244944335937498,-1.8900294799804687,250.6047709923664,-32.40392748091603,178.09497328244274,0
2431,-0.6788140502929692,-2.5285580444335936,-0.2308477294921875,250.6047709923664,-53.21308778625954,144.4613854961832,0
2456,-1.2941238769531254,-2.1287263671875,1.5480441040039061,250.6047709923664,-82.08331679389313,99.65985877862596,0
2481,-1.6508599243164066,-2.1454857788085935,3.4011561889648436,250.6047709923664,-99.01461450381679,51.6140572519084,0
2506,-1.2989122802734379,-1.8821235961914062,4.093080468749999,250.6047709923664,-115.8619427480916,2.644591603053435,0
2531,0.20704056396484338,-1.5014455322265625,5.974922973632812,250.6047709923664,-155.9535458015267,-52.39357633587786,0
2556,0.5925070312499998,-0.4408141967773438,6.875142797851562,250.6047709923664,-173.6176679389313,-102.63021755725191,0
2581,1.7345412231445305,-1.0561240234375,7.629316320800781,250.6047709923664,-175.8772099236641,-143.7065534351145,0
2606,1.7489064331054687,-1.0417588134765625,8.124916064453124,250.6047709923664,-145.90774427480915,-170.55388167938932,0
2631,2.723346508789062,0.040420336914062494,7.907043713378905,244.66583969465648,-131.56423282442748,-186.54624809160305,0
2656,4.554910778808593,1.1249936889648438,7.119351367187499,196.22309160305343,-113.52606488549618,-200.46991221374046,0
2681,5.835808666992187,2.812905859375,6.9613340576171865,162.7727099236641,-170.64056870229007,-212.59968320610687,0
2707,5.586811694335936,3.0164130004882814,7.626922119140624,121.14675572519083,-179.35812595419847,-227.6149503816794,0
2732,6.740816894531249,2.879943505859375,7.38031934814453,83.57423664122136,-139.49553053435113,-237.0271641221374,0
2757,7.109523950195311,4.1416877807617185,6.216737341308593,67.23835877862595,-155.94591221374046,-242.1951030534351,0
2782,6.90601680908203,6.399419946289062,5.263845080566406,35.070419847328246,-164.2970572519084,-239.85159160305344,0
2807,7.657796130371094,7.668346826171875,4.64853525390625,-6.792175572519084,-114.5031641221374,-230.41647709923663,0
2832,9.522879223632813,8.81277521972656,2.637405859375,-4.341793893129771,-219.03751526717556,-215.20273664122138,0
2857,7.166984790039062,8.45603917236328,1.2104616699218749,-11.754007633587786,-248.71690458015266,-185.40884351145039,0
2882,5.5437160644531245,9.351470593261718,0.8249952026367187,-64.10515267175573,-241.64820229007634,-139.58441603053436,0
2907,6.439147485351561,10.723348144531249,-0.1446564697265625,-89.77690839694657,-234.75507251908397,-100.78288931297709,0
2932,5.924394128417968,10.105644116210936,-0.02494638671875,-107.24255725190841,-248.71690458015266,-68.05769847328244,0
2957,6.1231128662109375,10.323516467285154,-0.21169411621093748,-131.2959923664122,-246.15201908396946,-46.56914885496183,0
2982,4.298731201171875,11.384147802734374,-1.2388066284179686,-159.2043893129771,-243.2970572519084,-26.218003816793892,0
3007,5.285142285156249,10.742501757812498,-2.404782836914062,-193.37996183206107,-217.4115610687023,-12.027164122137405,0
3032,4.463931115722656,11.360205786132811,-1.6051194824218749,-209.06698473282444,-196.19782061068702,-5.60731679389313,0
3057,5.328237915039062,11.736095446777343,-1.4734383911132811,-247.42576335877862,-77.99934732824427,-7.706553435114504,0
3083,6.427176477050781,13.158251232910155,0.3365780639648437,-222.2807251908397,-150.56423282442748,4.888866412213741,0
3108,6.046498413085938,10.661098901367186,-0.4942099121093749,-173.3952290076336,-248.71690458015266,51.03390458015267,0
3133,5.5437160644531245,11.300350744628904,-1.2244414184570311,-172.78454198473284,-214.91537786259542,107.67512595419848,0
3158,6.003402783203124,11.223736291503904,0.3724910888671875,-163.46393129770993,-187.64820229007634,150.690393129771,0
3183,4.916435229492187,11.530194104003904,-0.800667724609375,-155.70057251908398,-155.13675190839695,184.85069847328245,0
3208,4.753629516601562,11.360205786132811,-0.8222155395507812,-161.2272900763359,-135.19782061068702,213.55298854961833,0
3233,4.875733801269531,11.015440747070311,-0.5205461303710938,-156.6242366412214,-128.52606488549617,235.33924809160305,0
3258,5.811866650390624,10.75447276611328,-0.2978853759765625,-150.57843511450383,-128.61003435114503,245.18657633587787,0
3283,5.62272471923828,9.964386218261717,-1.040087890625,-138.37996183206107,-138.12911832061067,251.02627099236642,0
3308,5.9387593383789055,8.810381018066405,-2.0648062011718746,-117.83797709923665,-142.2588893129771,251.02627099236642,0
3333,5.960307153320312,7.855094555664063,-2.8979883789062497,-98.08225190839696,-115.5031641221374,251.02627099236642,0
3358,5.493437829589843,6.502370617675781,-3.968196520996093,-64.79980916030534,-103.63293511450381,251.02627099236642,0
3383,5.323449511718749,5.4177972656249995,-4.595477355957032,-32.46393129770992,-74.15201908396946,251.02627099236642,0
3408,6.192544714355468,3.320476611328125,-5.378381298828125,-2.143320610687023,-41.694003816793895,251.02627099236642,0
3433,5.888481103515624,2.6429175415039063,-4.358451391601562,53.948282442748095,-75.86957633587785,251.02627099236642,0
3458,5.251623461914062,0.7658634399414062,-3.8652458496093747,101.20782442748092,-63.632935114503816,251.02627099236642,0
3483,4.574064392089843,-0.8957125122070313,-3.381617114257812,141.61240458015266,-60.64056870229008,251.02627099236642,0
3508,2.6156074340820306,-1.5205991455078125,-3.1230433349609372,183.7040076335878,-85.61003435114503,251.02627099236642,0
3534,1.3275269409179682,-2.0521119140624995,-2.3305625854492185,217.9101145038168,-75.21308778625954,230.15604198473284,0
3559,0.5972954345703121,-3.196540307617187,-1.4614673828125,250.6047709923664,-110.73980534351145,204.2552786259542,0
3584,-0.26940556640625024,-3.627496606445312,-1.6745513305664061,250.6047709923664,-86.45736259541984,168.84306488549618,0
3609,-1.0475211059570315,-4.374487524414062,-0.3721056274414062,250.6047709923664,-93.25888931297709,133.01863740458015,0
3634,-0.35559682617187516,-3.9052239990234368,2.0460380493164063,250.6047709923664,-106.31995801526718,92.55298854961832,0
3659,0.18309854736328068,-3.4383546752929686,2.9007680419921877,250.6047709923664,-150.40392748091602,42.41558396946565,0
3684,-0.18800270996093804,-3.115137451171875,3.0156897216796876,250.6047709923664,-194.4878969465649,-15.813423664122137,0
3709,-0.20476212158203166,-1.9635264526367189,5.488900036621093,250.6047709923664,-195.08331679389312,-71.18746946564885,0
3734,0.2740782104492183,-2.2604074584960934,6.872748596191405,250.6047709923664,-210.77797328244273,-119.84395801526718,0
3759,0.6667272827148434,-2.1694277954101557,7.456933801269531,250.6047709923664,-234.4649961832061,-165.03479770992365,0
3784,3.2213404541015622,-0.11759697265624999,6.9230268310546865,250.49790076335879,-211.2054541984733,-205.7447213740458,0
3809,5.028962707519531,-0.1128085693359375,7.409049768066406,226.90248091603053,-248.71690458015266,-248.85159160305344,0
3834,5.1295191772460935,0.6581243652343749,7.756209008789062,178.04751908396946,-223.16728625954198,-249.24090458015266,0
3859,5.689762365722655,0.5120780639648437,7.174418005371093,152.09332061068702,-204.8772099236641,-249.24090458015266,0
3884,6.506185131835937,2.90867392578125,6.0611142333984365,109.55133587786258,-125.0298816793893,-249.24090458015266,0
3909,7.712862768554687,4.859948278808593,4.873590209960937,94.84141221374045,-147.02224809160305,-249.24090458015266,0
3935,7.415981762695311,6.748973388671875,3.975764587402344,69.76507633587785,-166.66346946564886,-249.24090458015266,0
3960,6.084805639648438,7.692288842773437,1.823377294921875,52.85667938931298,-196.1062175572519,-249.24090458015266,0
3985,7.245993444824218,7.086555822753906,0.4826243652343749,31.627671755725192,-248.71690458015266,-240.52334732824428,0
4010,7.219657226562499,7.81199892578125,0.4730475585937499,-23.547900763358776,-240.66346946564886,-186.6302175572519,0
4035,6.4535126953125,9.794397900390624,0.9303400756835937,-43.860877862595416,-248.71690458015266,-135.0118969465649,0
4060,4.351403637695312,9.538218322753904,-0.7384184814453125,-71.42576335877864,-248.71690458015266,-84.41647709923664,0
4085,5.026568505859374,9.14556925048828,-1.3106326782226563,-108.45629770992367,-211.84667557251908,-46.805790076335875,0
4110,3.4655490234374993,10.855029235839842,-1.7032817504882811,-131.38759541984734,-207.5795,-24.11113358778626,0
4135,3.434424401855468,12.475903759765623,-2.816585522460937,-154.10515267175572,-218.8237748091603,-13.698919847328245,0
4160,3.072899951171874,10.546177221679686,-2.747153674316406,-183.5097328244275,-181.67873664122138,-13.11113358778626,0
4185,4.109589270019531,11.19500587158203,-1.5308992309570313,-191.83797709923664,-166.77797328244273,-22.515713740458015,0
4210,4.423229687499999,10.929249487304686,-1.0664241088867188,-189.83797709923664,-172.2588893129771,-19.065332061068702,0
4235,5.450342199707031,11.599625952148436,-0.012975378417968753,-182.92958015267178,-189.99934732824428,-8.1035,0
4260,3.7265170043945304,11.31711015625,-1.222047216796875,-158.47919847328245,-248.71690458015266,29.934667938931298,0
4285,4.181415319824218,11.94199678955078,-1.51892822265625,-156.9601145038168,-240.26652290076336,69.13314122137405,0
4311,4.696168676757812,12.308309643554686,-0.8413691528320313,-149.9982824427481,-237.8237748091603,108.01863740458016,0
4336,3.8198908691406244,12.504634179687498,-0.81024453125,-135.70820610687022,-237.61003435114503,149.32398091603054,0
4361,3.060928942871093,12.322674853515624,-1.3297862915039063,-135.09751908396947,-196.77033969465649,193.43848473282443,0
4386,3.0657173461914056,12.562095019531249,-1.8277802368164062,-129.6242366412214,-167.3886603053435,233.54535496183206,0
4411,4.365768847656249,11.992275024414061,-1.7942614135742188,-122.62423664122137,-133.31995801526716,251.02627099236642,0
4436,5.067269934082031,11.274014526367186,-2.402388635253906,-101.29599236641222,-140.61003435114503,251.02627099236642,0
4461,4.696168676757812,9.727360253906248,-2.469426281738281,-90.06698473282444,-118.04514885496182,251.02627099236642,0
4486,4.949954052734374,8.894178076171874,-2.6585682128906245,-81.29599236641222,-73.35049236641221,251.02627099236642,0
4511,5.435976989746092,7.701865649414062,-3.0200926635742182,-69.4104961832061,-44.72453816793893,251.02627099236642,0
4536,6.546886560058593,6.313228686523438,-2.589136364746093,-49.914312977099236,-19.58713358778626,251.02627099236642,0
4561,7.834967053222656,5.027542395019531,-3.2499360229492185,-21.64713740458015,-16.08331679389313,251.02627099236642,0
4586,6.831796557617186,3.9238154296875,-3.400770727539062,10.062786259541985,-18.73217175572519,251.02627099236642,0
4611,5.455130603027343,2.6860131713867186,-3.4869619873046873,38.74217557251909,-10.938278625954197,251.02627099236642,0
4636,5.488649426269531,1.512854357910156,-3.6856807250976558,66.85667938931297,-3.3962938931297706,251.02627099236642,0
4661,5.3928813598632805,-0.048165124511718754,-3.4606257690429683,85.49790076335877,11.206759541984733,251.02627099236642,0
4686,5.280353881835937,-0.7903676391601563,-2.8285565307617184,117.81087786259542,-22.793240458015266,251.02627099236642,0
4712,3.824679272460937,-0.7161473876953125,-1.94030771484375,163.55896946564886,-79.2207213740458,234.07970610687022,0
4737,2.3139380249023436,-1.6355208251953124,-1.4351311645507812,201.49790076335879,-103.05278244274808,204.16367557251908,0
4762,1.056982153320312,-3.704111059570312,-1.739194775390625,228.21545801526716,-99.06041603053434,173.8583320610687,0
4787,0.6260258544921871,-4.254777441406249,-0.5205461303710938,232.42156488549617,-39.18255343511451,147.92703435114504,0
4812,0.6667272827148434,-3.280337365722656,0.5807866333007812,250.6047709923664,-66.96881297709923,124.63695801526718,0
4837,0.5230751831054685,-3.5676415649414057,0.655006884765625,250.6047709923664,-90.1443854961832,95.9346679389313,0
4862,-0.07308103027343771,-2.734459387207031,2.3285538452148438,250.6047709923664,-109.48026335877863,67.38504961832061,0
4887,0.046629052734374454,-4.199710803222656,4.282222399902343,250.6047709923664,-113.01461450381679,36.08733969465649,0
4912,0.3985766967773432,-3.821426940917968,5.371584155273437,250.6047709923664,-92.1443854961832,8.927034351145037,0
4937,0.0921188842773435,-1.1111906616210938,4.916685839843749,250.6047709923664,-103.80087404580152,-11.26380534351145,0
4962,1.0497995483398435,0.5958751220703125,6.460945910644531,250.6047709923664,-126.09095038167939,-35.3477748091603,0
4987,1.8422802978515618,-1.24766015625,9.30286328125,250.6047709923664,-141.96881297709922,-68.60731679389313,0
5012,1.2437298828124996,-2.0712655273437495,9.025135888671874,250.6047709923664,-106.80850763358778,-100.88212595419847,0
5037,2.397735083007812,1.1273878906249999,9.161605383300781,249.6429389312977,-94.54896564885496,-128.1798358778626,0
5062,5.366545141601562,1.6732658691406248,9.017953283691405,223.29942748091602,-156.93827862595418,-163.1035,0
5088,5.155855395507812,1.7355151123046875,8.910214208984375,197.7574427480916,-224.26652290076336,-197.27907251908397,0
5113,5.383304553222655,2.2335090576171877,9.02753009033203,152.22309160305343,-209.28942366412213,-215.5920496183206,0
5138,5.215710437011718,2.8751551025390625,7.892678503417968,112.36812977099235,-165.1596526717557,-225.60731679389312,0
5163,6.992208068847655,4.225484838867187,6.650087841796874,80.93301526717556,-148.16728625954198,-229.24090458015266,0
5188,5.3569683349609365,5.752985498046875,5.934221545410155,57.36812977099237,-146.75507251908397,-230.82869083969464,0
5213,6.063257824707031,5.726649279785156,5.5918507080078115,41.17729007633588,-123.53369847328244,-229.2180038167939,0
5238,6.410417065429686,6.365901123046875,4.308558618164062,46.42919847328245,-176.4115610687023,-226.0653320610687,0
5263,5.366545141601562,8.863053454589842,2.165748132324219,43.58950381679389,-248.71690458015266,-209.4775458015267,0
5288,6.525338745117186,7.936497412109374,2.0867394775390626,14.345229007633588,-248.71690458015266,-175.90502671755726,0
5313,6.513367736816405,8.326752282714843,1.5193136840820312,-10.494465648854963,-248.71690458015266,-135.6836526717557,0
5338,4.5860354003906245,9.952415209960936,0.3605200805664063,-50.280725190839696,-248.71690458015266,-92.81342366412214,0
5363,4.293942797851562,10.163104956054687,-0.28591436767578127,-86.0746183206107,-248.71690458015266,-54.55388167938931,0
5388,3.8701691040039057,10.92685528564453,-0.2787317626953125,-116.7158396946565,-248.71690458015266,-20.57678244274809,0
5413,2.6132132324218746,10.675464111328123,-0.0871956298828125,-132.731106870229,-248.71690458015266,6.323980916030534,0
5438,2.2397177734374996,11.104026208496093,-1.8804526733398437,-175.9448473282443,-227.4649961832061,25.759095419847327,0
5463,5.002626489257812,11.487098474121092,-1.4207659545898437,-217.49446564885497,-185.62530152671755,30.56062213740458,0
5489,2.9124884399414057,13.265990307617185,-0.45111428222656247,-222.90667938931298,-232.35812595419847,44.90413358778626,0
5514,4.856580187988281,12.76560216064453,-1.2675370483398436,-226.66240458015267,-248.71690458015266,61.71329389312977,0
5539,5.51498564453125,11.738489648437499,-0.50378671875,-214.3570610687023,-248.71690458015266,79.98810305343511,0
5564,3.2548592773437495,12.169445947265624,-1.4016123413085937,-177.82270992366412,-248.71690458015266,111.79726335877864,0
5589,3.642719946289062,12.736871740722655,-2.7232116577148435,-171.86087786259543,-218.70163740458014,158.04153816793894,0
5614,4.095224060058593,11.867776538085936,-2.5819537597656246,-149.9448473282443,-194.62530152671755,196.47665267175572,0
5639,4.423229687499999,11.93481418457031,-2.845315942382812,-122.09751908396947,-168.15201908396946,226.41558396946564,0
5664,4.574064392089843,11.613991162109373,-2.536463928222656,-100.51736641221375,-138.7092709923664,240.7056603053435,0
5689,4.540545568847656,10.26366142578125,-2.2922553588867185,-91.05935114503818,-83.31232442748092,251.02627099236642,0
5714,5.0193859008789055,8.36027110595703,-2.8764405639648434,-88.29599236641222,-25.167286259541985,251.02627099236642,0
5739,7.5907584838867175,8.81277521972656,-2.4861856933593747,-89.86851145038169,-2.991713740458015,251.02627099236642,0
5764,6.925170422363281,7.376254223632812,-2.5244929199218746,-61.563167938931294,-61.41919465648855,251.02627099236642,0
5789,7.0472747070312485,5.4561044921874995,-1.566812255859375,-47.99064885496183,-39.5795,251.02627099236642,0
5814,6.601953198242186,4.194360217285157,-2.352110400390625,-26.395229007633585,-42.21308778625954,251.02627099236642,0
5839,5.696944970703124,2.6165813232421877,-2.3161973754882808,-16.63950381679389,-16.144385496183205,251.02627099236642,0
5864,5.972278161621094,1.4075094848632812,-2.960237622070312,-6.181488549618321,2.939583969465649,251.02627099236642,0
5890,5.558081274414062,0.1840724365234375,-3.0105158569335932,21.108587786259545,-25.89247709923664,251.02627099236642,0
5915,4.60758321533203,-1.34342822265625,-2.854892749023437,59.49790076335878,-46.6176679389313,251.02627099236642,0
5940,4.358586242675781,-2.6865753540039057,-2.957843420410156,79.98645038167939,-30.839041984732827,251.02627099236642,0
5965,3.654690954589843,-3.0504940063476558,-3.3026084594726557,99.66583969465648,-32.26652290076336,251.02627099236642,0
5990,2.5940596191406247,-3.1366852661132807,-2.6968754394531245,124.02461832061068,-51.014614503816794,230.07970610687022,0
6015,1.1599328247070306,-3.452719885253906,-1.8445396484374998,156.6047709923664,-89.74743893129771,208.50718702290078,0
6041,-0.18800270996093804,-4.558841052246093,-0.8629169677734375,183.3986641221374,-104.6711030534351,181.33924809160305,0
6066,-0.152089685058594,-5.123872644042968,-0.6929286499023437,203.95591603053435,-91.77797328244274,151.9881030534351,0
6091,-0.12814766845703174,-5.523704321289062,0.34376066894531243,229.23835877862595,-112.36575954198473,119.73619465648855,0
6116,0.252530395507812,-4.831780041503905,1.7395802368164062,250.6047709923664,-153.44972900763358,82.46138549618321,0
6141,-0.19757951660156303,-5.068806005859375,2.711626110839844,250.6047709923664,-221.85430916030535,37.04153816793893,0
6166,-0.13533027343750037,-4.384064331054687,3.4466460205078127,250.6047709923664,-220.85430916030535,-8.630217557251909,0
6191,0.6260258544921871,-3.177386694335937,5.340459533691406,250.6047709923664,-236.23598854961833,-53.71418702290076,0
6216,0.9899445068359372,-5.138237854003906,7.698748168945312,250.6047709923664,-236.54896564885496,-101.32487404580152,0
6241,0.4727969482421872,-4.623484497070312,7.0738615356445305,250.6047709923664,-173.94591221374046,-133.08823282442748,0
6266,1.5286398803710934,-2.133514770507812,6.34602423095703,250.6047709923664,-154.61003435114503,-149.00426335877862,0
6291,3.7600358276367185,0.07154495849609374,6.446580700683593,244.87958015267176,-181.6940038167939,-169.54624809160305,0
6316,5.510197241210936,-0.6658691528320313,6.973305065917968,231.9864503816794,-228.07568320610687,-196.85922519083968,0
6342,5.651455139160155,-1.6570686401367187,6.676424060058593,207.7040076335878,-224.44209541984733,-227.58441603053436,0
6367,4.602794812011718,0.36603176269531246,6.5064357421875,186.03225190839694,-207.84667557251908,-245.90502671755726,0
6392,5.842991271972656,2.6979841796875,5.42665079345703,150.8490458015267,-156.00698091603053,-249.24090458015266,0
6417,6.022556396484375,3.705943078613281,4.263068786621093,128.8719465648855,-164.05278244274808,-249.24090458015266,0
6442,7.7751120117187495,4.627710717773438,3.8512661010742186,96.23835877862595,-146.73217175572518,-249.24090458015266,0
6467,6.716874877929686,5.990011462402344,2.7762695556640624,74.0398854961832,-157.33522519083968,-249.24090458015266,0
6492,6.601953198242186,6.397025744628906,1.7012730102539062,72.7192748091603,-248.71690458015266,-232.36304198473283,0
6517,6.091988244628905,6.478428601074219,0.6214880615234374,23.98645038167939,-248.71690458015266,-194.88975954198472,0
6542,6.795883532714844,8.274079846191405,-0.27394335937500003,-17.18148854961832,-235.5031641221374,-147.0118969465649,0
6567,6.460695300292968,8.202253796386717,-1.2459892333984375,-50.83797709923664,-222.81614122137404,-100.5920496183206,0
6592,5.89087530517578,8.913331689453123,-1.2723254516601563,-74.75400763358779,-211.03751526717556,-66.39357633587785,0
6617,4.066493640136718,10.098461511230468,-1.6003310791015624,-94.25782442748093,-217.0146145038168,-41.20273664122137,0
6642,3.056140539550781,10.232536804199217,-1.9163656982421875,-116.318893129771,-223.0909503816794,-25.309606870229008,0
6667,2.9196710449218743,10.234931005859373,-2.632231994628906,-142.8837786259542,-204.88484351145038,-12.60731679389313,0
6692,3.6475083496093745,9.507093701171874,-2.8237681274414057,-161.37996183206107,-206.99934732824428,-9.027164122137405,0
6717,1.7465122314453119,11.008258142089842,-2.452666870117187,-181.1509541984733,-180.85430916030535,-8.11113358778626,0
6743,3.0058623046874997,11.47512746582031,-2.162968469238281,-191.15858778625955,-177.45736259541985,-10.592049618320612,0
6768,3.360204150390625,11.683423010253906,-0.47505629882812495,-191.18912213740458,-195.11385114503815,-6.3172404580152675,0
6793,1.8446744995117186,12.60519064941406,-1.0664241088867188,-159.83797709923664,-248.71690458015266,18.8965,0
6818,2.2612655883789055,13.491045263671873,-2.3114089721679685,-174.66240458015267,-248.71690458015266,48.247645038167946,0
6843,3.242888269042968,12.878129638671874,-1.0951545288085938,-155.1509541984733,-248.71690458015266,74.40031679389314,0
6868,0.15915653076171843,15.95707297363281,-19.6574,18.82614503816794,-248.71690458015266,102.66749236641222,0
6893,10.37282081298828,13.371335180664062,16.111972802734375,-76.6395038167939,-202.0909503816794,156.39268320610688,0
6918,5.3952755615234365,11.920448974609373,1.6462063720703124,-26.66240458015267,-136.75507251908397,171.04917175572518,0
6943,0.3722404785156246,11.288379736328123,-4.588294750976562,-36.59370229007634,-125.19018702290076,205.69802671755727,0
6968,-1.607764294433594,12.990657116699218,-1.7535599853515624,-50.479198473282445,-114.6711030534351,233.8735992366412,0
6993,0.5470171997070308,12.34422266845703,-5.055164074707031,-53.44103053435114,-82.80087404580152,232.43085114503816,0
7018,4.198174731445312,9.22218370361328,-2.8524985473632807,-46.608969465648855,-57.877209923664125,205.09497328244274,0
7043,5.610753710937499,6.689118347167969,-3.8245444213867184,-18.608969465648855,-68.59476717557251,179.39268320610688,0
7068,5.51498564453125,5.872695581054687,-4.650543994140625,9.291793893129771,-57.12148473282443,173.3163473282443,0
7093,6.580405383300781,5.132887268066406,-5.342468273925781,30.49026717557252,-36.96117938931298,174.13314122137405,0
7119,7.483019409179687,4.9485337402343745,-4.803772900390625,44.49790076335878,10.519736641221375,180.43085114503816,0
7144,6.941929833984374,4.606162902832031,-3.072765100097656,52.27652671755725,67.38233206106871,206.9728358778626,0
7169,5.771165222167968,4.677988952636719,-3.592306860351562,51.74980916030535,91.214393129771,250.77436259541986,0
7194,5.82144345703125,4.407444165039062,-4.403941223144531,48.940648854961836,73.52737022900764,251.02627099236642,0
7219,6.0488926147460935,3.313294006347656,-3.0009390502929683,31.650572519083973,84.90904961832061,251.02627099236642,0
7244,5.792713037109375,1.6038340209960937,-1.5644180541992188,26.82614503816794,89.00065267175573,251.02627099236642,0
7269,5.239652453613281,0.5647505004882812,-1.9546729248046875,24.910114503816796,83.92431679389314,251.02627099236642,0
7294,4.384922460937499,-1.3745528442382813,-2.1462090576171873,15.787977099236642,85.69530916030534,251.02627099236642,0
7319,3.1207839843749996,-2.104784350585937,-0.9012241943359375,13.245992366412214,88.38996564885497,251.02627099236642,0
7344,2.5461755859374993,-3.1318968627929684,0.406009912109375,1.123854961832061,126.51210305343511,251.02627099236642,0
7369,2.5820886108398433,-4.549264245605468,0.4227693237304687,3.230725190839695,116.84034732824428,251.02627099236642,0
7394,2.6203958374023433,-5.8612867553710934,-1.0352994873046875,16.32996183206107,70.71820992366412,251.02627099236642,0
7419,1.538216687011718,-5.435118859863281,-0.9419256225585937,25.887213740458016,35.69530916030534,251.02627099236642,0
7444,0.5158925781249994,-5.092748022460937,0.195320166015625,48.80324427480916,-8.861942748091602,236.30871374045802,0
7469,-0.40826926269531283,-5.562011547851562,0.540085205078125,94.62003816793893,-96.15201908396946,212.8048969465649,0
7494,-1.9285873168945313,-6.524480615234374,-0.226059326171875,119.85667938931297,-107.0680496183206,179.44611832061068,0
7520,-1.6771961425781252,-6.486173388671874,0.7483807495117186,152.5666030534351,-104.73217175572519,152.55298854961833,0
7545,-1.8423960571289064,-6.062399694824218,1.366084777832031,195.2459923664122,-158.54896564885496,119.0110038167939,0
7570,-1.4473527832031252,-6.186898181152343,3.750709631347656,250.6047709923664,-224.6024007633588,79.76672900763359,0
7595,-3.3172242797851563,-6.184503979492187,5.223143652343749,250.6047709923664,-248.71690458015266,35.94993511450382,0
7620,-3.101746130371094,-4.405612145996093,5.536784069824218,250.6047709923664,-224.91537786259542,-6.0958664122137405,0
7645,-0.9134458129882816,-2.5860188842773435,6.767403723144531,250.6047709923664,-237.77797328244273,-52.859225190839695,0
7670,0.9636082885742185,-3.115137451171875,8.8814837890625,250.6047709923664,-248.71690458015266,-99.9889961832061,0
7695,1.2437298828124996,-4.34336290283203,9.058654711914063,250.6047709923664,-248.71690458015266,-141.73708778625954,0
7720,1.782425256347656,-1.1758341064453124,10.389830834960936,250.6047709923664,-248.71690458015266,-190.3859427480916,0
7745,3.2357056640624995,-0.9100777221679688,9.501582019042967,250.6047709923664,-248.71690458015266,-228.88975954198472,0
7770,3.3865403686523434,0.5072896606445312,8.852753369140624,216.84141221374045,-228.96117938931297,-249.24090458015266,0
7795,5.481466821289062,1.7450919189453125,7.119351367187499,169.91774809160304,-169.70163740458014,-249.24090458015266,0
7820,7.140648571777343,3.2175259399414062,7.662835144042968,149.475,-207.88484351145038,-249.24090458015266,0
7845,4.621948425292969,5.319634997558594,5.596639111328124,114.21545801526717,-209.23598854961833,-249.24090458015266,0
7870,5.720886987304687,5.039513403320313,3.99731240234375,64.60477099236641,-168.6558358778626,-249.24090458015266,0
7895,6.9515066406249995,6.399419946289062,3.3987619873046877,34.72690839694657,-202.12148473282443,-224.6302175572519,0
7920,8.186914697265625,6.923750109863281,3.568750305175781,3.780343511450382,-246.77797328244273,-179.83632442748092,0
7946,6.041710009765624,7.785662707519531,3.183283837890625,-27.593702290076333,-248.71690458015266,-137.4775458015267,0
7971,5.445553796386718,9.349076391601562,1.2272210815429687,-65.02881679389314,-240.19018702290077,-101.51571374045801,0
7996,5.297113293457031,9.985934033203124,0.7507749511718749,-93.28835877862596,-245.77033969465649,-76.63021755725191,0
8021,4.246058764648437,9.274856140136718,0.08997529296874998,-123.12805343511451,-216.09858396946564,-60.01953053435114,0
8046,5.488649426269531,9.428085046386718,-0.003398571777343755,-143.6242366412214,-209.99934732824428,-59.248538167938925,0
8071,3.8318618774414057,11.063324780273437,0.7388039428710936,-146.74637404580153,-248.71690458015266,-59.84395801526717,0
8096,1.6076485351562493,10.555754028320312,-0.38407663574218753,-157.55553435114504,-248.71690458015266,-52.27907251908397,0
8121,2.7855957519531245,10.055365881347655,-1.1190965454101562,-210.66240458015267,-167.86957633587787,-44.40120992366412,0
8146,3.4416070068359366,10.845452429199218,-0.2883085693359375,-217.04408396946565,-185.64056870229007,-39.355408396946565,0
8171,4.78714833984375,11.32908116455078,1.7132440185546873,-206.45629770992366,-223.04514885496184,-29.553881679389313,0
8196,4.1933863281249995,10.953191503906249,0.4658649536132812,-184.64713740458015,-248.71690458015266,-7.0882328244274815,0
8221,4.842214978027343,11.42484923095703,-0.06325361328125,-172.7387404580153,-248.71690458015266,28.20947709923664,0
8246,4.147896496582031,10.670675708007812,-0.4966041137695312,-152.74637404580153,-248.71690458015266,73.40031679389314,0
8271,3.7432764160156244,11.894112756347655,-1.5261108276367188,-138.81507633587788,-239.73980534351145,117.2934465648855,0
8296,4.317884814453125,11.829469311523436,-2.488579895019531,-123.27309160305344,-210.89247709923663,151.7132938931298,0
8321,4.595612207031249,11.139939233398437,-1.3728819213867187,-101.2807251908397,-186.5565992366412,182.5987900763359,0
8347,4.1718385131835936,12.016217041015624,-2.124661242675781,-78.93721374045802,-164.2741564885496,212.42321755725192,0
8372,3.82946767578125,11.001075537109374,-2.5675885498046873,-70.26545801526719,-119.03751526717556,238.9194007633588,0
8397,5.153461193847655,9.732148657226562,-3.285849047851562,-65.57080152671756,-76.30469083969466,251.02627099236642,0
8422,6.058469421386717,9.255702526855467,-2.5963189697265623,-58.30362595419847,-53.11385114503817,251.02627099236642,0
8447,6.86770958251953,8.527865222167968,-3.0512172851562496,-47.00591603053435,-29.9001106870229,251.02627099236642,0
8472,6.41520546875,7.048248596191406,-3.1661389648437495,-29.089885496183204,-17.39629389312977,251.02627099236642,0
8497,6.953900842285155,5.614121801757812,-3.187686779785156,-15.18148854961832,20.30599618320611,251.02627099236642,0
8522,7.186138403320311,4.5534904663085936,-1.8589048583984373,1.9788167938931296,29.10752290076336,251.02627099236642,0
8547,6.7264516845703115,3.301322998046875,-1.4255543579101562,15.078053435114503,44.305996183206105,251.02627099236642,0
8572,6.3768982421875,2.2430858642578126,-1.8517222534179687,13.871946564885496,63.9472175572519,251.02627099236642,0
8597,6.3314084106445305,2.030001916503906,-2.7710956909179685,29.65820610687023,5.191492366412214,251.02627099236642,0
8622,5.050510522460937,0.23674487304687497,-2.6465972045898436,60.383396946564886,-63.266522900763356,251.02627099236642,0
8647,4.128742883300781,-1.1878051147460937,-1.758348388671875,90.49026717557251,-73.59476717557251,251.02627099236642,0
8672,3.8749575073242184,-2.5764420776367185,-1.71046435546875,122.17729007633588,-72.48789694656489,240.4079503816794,0
8697,3.1638796142578123,-3.555670556640625,-1.9474903198242186,152.32232824427481,-68.9001106870229,212.94230152671756,0
8722,1.7680600463867187,-3.6298908081054684,-1.8565106567382812,176.9635496183206,-62.41919465648855,189.19420992366412,0
8748,0.740947534179687,-4.101548535156249,-0.8485517578125,200.08568702290077,-77.28179007633588,169.24764503816795,0
8773,0.09930148925781213,-4.52292802734375,-0.43914327392578123,234.0398854961832,-87.30469083969466,149.56825572519085,0
8798,0.12563770751953074,-4.6785511352539055,0.1043405029296875,249.91774809160304,-86.54896564885496,117.66749236641222,0
8823,0.027475439453124473,-3.9626848388671867,2.194478552246094,250.6047709923664,-130.0146145038168,78.81253053435115,0
8848,-1.1408949707031253,-3.9459254272460935,3.085121569824219,250.6047709923664,-144.42682824427482,39.92703435114504,0
8873,-0.5207967407226564,-2.8661404785156246,3.8297182861328123,250.6047709923664,-151.00698091603053,-3.6760190839694658,0
8898,0.4680085449218745,-3.328221398925781,6.049143225097656,250.6047709923664,-179.04514885496184,-58.69891984732824,0
8923,0.27168400878906196,-1.5780599853515624,6.314899609374999,250.6047709923664,-195.86957633587787,-112.86685877862595,0
8948,1.1503560180664056,-0.5844662963867188,7.547913464355468,250.6047709923664,-199.38102671755726,-160.9126603053435,0
8974,3.357809948730468,-1.61157880859375,9.752973193359374,250.6047709923664,-161.0909503816794,-199.4012099236641,0
8999,2.7760189453125,-1.0728834350585936,8.972463452148437,250.6047709923664,-182.31232442748092,-219.1951030534351,0
9024,3.523009863281249,1.522431164550781,8.36433623046875,250.6047709923664,-230.7092709923664,-234.2180038167939,0
9049,4.325067419433593,3.4569461059570314,6.690789270019531,227.89484732824428,-212.2741564885496,-241.7294541984733,0
9074,6.345773620605468,5.202319116210937,5.888731713867187,148.8719465648855,-135.9764465648855,-237.95082824427482,0
9099,7.573999072265624,4.227879040527344,5.965346166992187,106.55896946564884,-75.77033969465649,-237.82869083969464,0
9124,6.623501013183593,6.5622256591796875,4.203213745117187,115.61240458015267,-206.07568320610687,-219.59968320610687,0
9149,6.5181561401367185,6.545466247558593,4.138570300292968,84.85667938931297,-222.56423282442748,-196.58441603053436,0
9174,6.202121520996093,7.385831030273438,2.199266955566406,52.18492366412214,-218.51079770992365,-166.27907251908397,0
9199,6.740816894531249,7.929314807128906,1.7443686401367187,10.681106870229007,-185.12148473282443,-135.8210572519084,0
9224,6.5181561401367185,8.810381018066405,1.0045603271484373,-14.68530534351145,-200.66346946564886,-112.53861450381679,0
9249,6.017767993164061,10.005087646484373,-0.120714453125,-51.76164122137404,-192.21308778625954,-89.36304198473282,0
9275,6.209304125976561,9.760879077148436,-0.3816824340820313,-69.37996183206107,-225.5947671755725,-71.59968320610686,0
9300,5.033751110839843,9.787215295410155,-0.43435487060546873,-89.89141221374047,-225.9764465648855,-56.46991221374046,0
9325,4.0976182617187495,9.41371983642578,-0.21887672119140625,-103.48683206106871,-233.05278244274808,-41.82105725190839,0
9350,3.8127082641601557,10.491110583496093,-1.9163656982421875,-128.12041984732824,-228.2054541984733,-27.233270992366414,0
9375,3.676238769531249,9.91171378173828,-1.8086266235351562,-145.7540076335878,-233.5565992366412,-19.98136259541985,0
9400,2.9747376831054684,10.68982932128906,-1.6601861206054687,-149.65477099236642,-248.71690458015266,-10.729454198473283,0
9425,2.8454507934570303,11.338657971191404,-2.048046789550781,-161.57080152671756,-248.71690458015266,7.9117671755725185,0
9450,1.595677526855468,11.364994189453123,-3.024881066894531,-178.36469465648855,-223.1825534351145,25.629324427480917,0
9475,2.1846511352539055,11.376965197753904,-3.087130310058593,-192.54026717557252,-176.83140839694656,36.560622137404586,0
9500,2.9388246582031243,11.084872595214842,-2.613078381347656,-157.2043893129771,-227.25125572519084,48.705660305343514,0
9525,4.049734228515624,10.902913269042967,-1.7703193969726563,-120.1662213740458,-227.23598854961833,67.91940076335878,0
9550,4.578852795410156,11.333869567871092,-3.6138546752929686,-102.34179389312978,-196.40392748091602,100.94993511450382,0
9575,5.615542114257813,10.426467138671873,-2.584347961425781,-79.86851145038169,-187.28179007633588,143.4613854961832,0
9600,4.72250489501953,10.890942260742186,-2.34253359375,-58.731106870229006,-148.5795,188.13314122137405,0
9625,4.186203723144531,11.439214440917967,-3.1182549316406245,-53.563167938931294,-110.35049236641221,229.68275954198472,0
9651,4.164655908203124,11.218947888183592,-3.0703708984374996,-53.479198473282445,-84.80850763358778,251.02627099236642,0
9676,4.693774475097656,10.941220495605467,-2.8620753540039057,-61.242557251908394,-40.14438549618321,251.02627099236642,0
9701,4.669832458496093,10.455197558593749,-3.688074926757812,-78.05171755725192,-7.3428587786259545,251.02627099236642,0
9726,5.768771020507812,9.040224377441405,-2.3305625854492185,-94.8837786259542,25.58080534351145,251.02627099236642,0
9751,5.354574133300781,9.329922778320311,-1.9762207397460936,-105.11278625954199,63.84798091603053,251.02627099236642,0
9776,6.807854541015625,6.871077673339843,-2.0169221679687497,-118.25782442748093,114.56553816793894,251.02627099236642,0
9801,7.49977882080078,5.439345080566406,-2.854892749023437,-119.94484732824428,125.3059961832061,251.02627099236642,0
9826,6.206909924316405,3.2199201416015626,-2.028893176269531,-94.9601145038168,56.45866793893129,251.02627099236642,0
9851,5.771165222167968,1.7283325073242186,-2.488579895019531,-60.563167938931294,-14.052782442748091,251.02627099236642,0
9876,5.364150939941406,0.14337100830078123,-3.656950305175781,-34.07461832061068,-35.35049236641222,251.02627099236642,0
9901,4.516603552246093,-0.7353010009765625,-2.807008715820312,-10.608969465648855,-38.86194274809161,251.02627099236642,0
9926,3.053746337890624,-1.6235498168945313,-2.3042263671875,19.98645038167939,-34.5795,251.02627099236642,0
9951,3.1973984374999995,-2.8517752685546873,-2.34253359375,61.69637404580153,-63.739805343511456,251.02627099236642,0
9976,2.3354858398437495,-3.790302319335937,-2.337745190429687,101.10095419847327,-80.1443854961832,235.56825572519085,0
10001,1.3849877807617181,-3.7759371093749996,-1.4614673828125,155.93301526717556,-133.19782061068702,212.88123282442749,0
10026,0.9995213134765621,-4.872481469726562,-1.3417572998046874,214.13148854961833,-186.00698091603053,181.62932442748092,0
10052,-0.5327677490234377,-5.087959619140625,-0.5301229370117188,247.16202290076336,-168.08331679389312,143.3316145038168,0
10077,-1.4784774047851565,-4.597148278808593,0.010966638183593745,250.6047709923664,-135.77033969465649,115.41558396946566,0
10102,-1.579033874511719,-4.388852734375,1.1577892333984374,250.6047709923664,-100.03751526717556,94.04153816793894,0
10127,-0.5591039672851568,-4.252383239746093,3.8105646728515623,250.6047709923664,-123.35049236641221,61.81253053435115,0
10152,-1.6724077392578127,-4.7527713867187495,4.301376013183593,250.6047709923664,-125.25125572519083,18.43085114503817,0
10177,-1.6221295043945314,-2.4160305664062496,4.617410632324218,250.6047709923664,-97.59476717557251,-18.309606870229008,0
10202,0.6571504760742184,-2.0042278808593745,6.5112241455078115,250.6047709923664,-127.66346946564886,-59.01953053435114,0
10227,0.9779734985351558,-2.0018336791992186,7.983658166503906,250.6047709923664,-171.2970572519084,-104.84395801526718,0
10252,1.5717355102539061,-1.9012772094726562,8.369124633789061,250.6047709923664,-156.5031641221374,-146.92792748091603,0
10277,1.313161730957031,-0.15111579589843752,8.52953614501953,250.6047709923664,-145.8772099236641,-179.7294541984733,0
10302,2.761653735351562,0.5312316772460938,8.515170935058594,250.6047709923664,-114.81614122137404,-200.7447213740458,0
10327,4.483084729003906,1.2662515869140625,9.238219836425781,250.6047709923664,-131.63293511450382,-212.0118969465649,0
10352,4.0808588500976555,3.397091064453125,8.239837744140624,250.6047709923664,-181.991713740458,-224.63785114503816,0
10377,4.6985628784179685,4.436174584960938,7.863948083496093,222.48263358778627,-198.58713358778627,-236.76762213740457,0
10402,5.0193859008789055,5.329211804199218,6.28856339111328,178.7040076335878,-179.9535458015267,-240.34014122137404,0
10428,6.621106811523437,7.187112292480468,5.675647766113281,126.1696564885496,-198.15201908396946,-230.2332709923664,0
10453,8.536468139648438,7.828758337402343,4.775427941894531,79.10858778625953,-248.71690458015266,-198.86685877862595,0
10478,7.140648571777343,7.144016662597656,3.6286053466796875,24.688740458015268,-248.71690458015266,-157.88212595419847,0
10503,4.593218005371093,8.872630261230467,2.539243591308594,-38.83797709923664,-228.9001106870229,-118.96609541984732,0
10528,5.62272471923828,9.63638059082031,1.423545617675781,-71.91431297709924,-215.62530152671755,-102.1951030534351,0
10553,4.619554223632812,9.583708154296874,1.8880207397460935,-89.98301526717557,-248.71690458015266,-94.09586641221374,0
10578,3.587653308105468,10.009876049804687,2.0125192260742186,-103.2043893129771,-248.71690458015266,-88.11876717557251,0
10603,3.039381127929687,10.500687390136717,0.789082177734375,-133.31125954198473,-214.77033969465649,-86.48517938931298,0
10628,3.7241228027343745,10.280420837402342,1.076386376953125,-154.3417938931298,-201.67873664122138,-93.72182061068702,0
10653,3.8558038940429684,11.350628979492186,0.635853271484375,-172.28835877862596,-198.64820229007634,-96.36304198473282,0
10678,3.135149194335937,12.016217041015624,1.3732673828125,-183.07461832061068,-228.0146145038168,-88.17220229007633,0
10703,3.9467835571289056,12.626738464355467,1.0189255371093748,-194.44866412213742,-232.8772099236641,-70.04243129770992,0
10728,2.5629349975585933,11.855805529785155,1.595928137207031,-185.9219465648855,-248.71690458015266,-46.40884351145038,0
10753,3.736093811035156,13.503016271972655,0.7268329345703124,-178.9982824427481,-244.08331679389312,-12.11113358778626,0
10778,3.0274101196289056,13.131915014648436,1.653388977050781,-148.25782442748093,-248.71690458015266,36.72092748091603,0
10804,3.3697809570312494,12.741660144042967,-0.29549117431640626,-125.15095419847329,-248.71690458015266,96.39268320610687,0
10829,4.305913806152343,11.427243432617185,-0.25239554443359374,-114.09751908396947,-235.98408015267177,145.43848473282443,0
10854,3.568499694824218,11.446397045898436,-0.2715491577148437,-97.04408396946566,-189.31232442748092,186.04153816793894,0
10879,3.602018518066406,11.022623352050779,-0.7767257080078125,-106.54790076335878,-121.32759160305343,220.0873396946565,0
10904,4.751235314941406,11.135150830078123,-0.3290099975585937,-115.31125954198474,-106.77033969465649,240.88886641221373,0
10929,4.471113720703125,10.299574450683592,0.9087922607421874,-125.8837786259542,-75.67873664122136,251.02627099236642,0
10954,4.4567485107421865,10.017058654785155,-0.12310865478515624,-146.37996183206107,-34.83140839694657,251.02627099236642,0
10979,6.228457739257812,8.901360681152342,-0.6187083984375,-171.90667938931298,-7.816141221374044,251.02627099236642,0
11004,6.841373364257811,7.845517749023437,-0.398441845703125,-174.08225190839696,-30.167286259541985,251.02627099236642,0
11029,7.3824629394531245,6.27970986328125,-0.6833518432617187,-161.54026717557252,-51.434461832061075,251.02627099236642,0
11054,7.068822521972655,4.32604130859375,-0.9802328491210938,-145.2807251908397,-49.373393129770996,251.02627099236642,0
11079,7.31542529296875,3.3539954345703125,-1.6123020874023437,-126.01354961832061,-38.884843511450384,251.02627099236642,0
11104,7.451894787597655,2.9326159423828124,-1.2842964599609374,-89.63187022900765,-59.42682824427481,251.02627099236642,0
11129,6.884468994140625,1.3332892333984374,-1.9474903198242186,-54.67003816793893,-62.41919465648855,251.02627099236642,0
11154,5.558081274414062,0.5599620971679687,-2.960237622070312,-29.433396946564883,-47.70927099236641,251.02627099236642,0
11180,5.194162622070312,-0.41926638183593745,-3.1350143432617186,-7.227290076335878,-38.510797709923665,251.02627099236642,0
11205,4.794330944824218,-0.682628564453125,-2.835739135742187,28.20782442748092,-47.99171374045802,251.02627099236642,0
11230,4.258029772949218,-2.9427549316406245,-2.261130737304687,83.42156488549618,-87.70163740458015,250.07207251908397,0
11255,2.6587030639648432,-3.3449808105468746,-1.6673687255859375,130.91774809160304,-104.34285877862595,233.54535496183206,0
11280,1.3466805541992182,-3.895647192382812,-2.0264989746093747,166.1162213740458,-87.28179007633588,213.94230152671756,0
11305,0.9923387084960935,-3.6035545898437498,-1.7056759521484375,190.29942748091602,-74.37339312977099,197.36214885496184,0
11330,0.8175619873046873,-4.032116687011718,-0.17099268798828124,223.6429389312977,-101.65583587786259,180.26291221374046,0
11355,-0.16406069335937534,-4.103942736816406,0.9351284790039062,250.6047709923664,-136.1596526717557,152.73619465648855,0
11380,-1.1672311889648441,-4.065635510253906,1.8090120849609375,250.6047709923664,-149.9535458015267,119.72856106870229,0
11405,-0.6883908569335941,-3.9267718139648435,3.69085458984375,250.6047709923664,-135.3504923664122,84.10260687022901,0
11430,-0.10181145019531268,-3.443143078613281,4.983723486328125,250.6047709923664,-214.31232442748092,41.46901908396947,0
11455,-1.0403385009765629,-4.075212316894531,7.356377331542968,250.6047709923664,-248.71690458015266,-10.920293893129772,0
11480,-1.3276427001953128,-2.897265100097656,6.798528344726562,250.6047709923664,-211.45736259541985,-52.0653320610687,0
11505,0.3722404785156246,-2.1287263671875,7.928591528320312,250.6047709923664,-195.1062175572519,-90.9508282442748,0
11530,1.9715671874999998,-1.1901993164062499,8.828811352539061,250.6047709923664,-208.9535458015267,-128.75235496183205,0
11556,2.7664421386718745,-1.017816796875,9.393842944335937,250.6047709923664,-212.2970572519084,-167.00426335877862,0
11581,3.0489579345703124,0.3229361328125,8.627698413085938,250.6047709923664,-166.6176679389313,-198.2867061068702,0
11606,3.4847026367187492,0.7969880615234374,7.887890100097655,247.29942748091602,-82.64056870229007,-211.7981564885496,0
11631,5.9746723632812495,1.9150802368164062,7.638893127441405,235.55133587786258,-102.19782061068702,-208.37067557251908,0
11656,5.62990732421875,4.041131311035156,7.734661193847655,216.97881679389312,-111.99171374045801,-209.40884351145039,0
11681,5.402458166503906,5.745802893066406,5.522418859863281,199.31469465648854,-150.06041603053436,-202.60731679389312,0
11706,6.2236693359375,5.5662377685546875,4.521642565917968,160.35286259541985,-189.81614122137404,-190.65311832061067,0
11731,7.078399328613281,6.033107092285156,4.48812374267578,104.00935114503817,-183.90774427480915,-169.41647709923663,0
11756,6.597164794921874,7.136834057617187,3.616634338378906,56.49026717557252,-189.05278244274808,-138.41647709923663,0
11781,6.743211096191405,7.615674389648437,2.7954231689453124,21.444465648854962,-221.45736259541985,-112.30197328244275,0
11806,5.593994299316406,7.337946997070312,2.4578407348632814,-4.456297709923665,-248.71690458015266,-99.04243129770992,0
11831,3.151908605957031,8.678699926757812,0.7555633544921875,-48.8456106870229,-213.7092709923664,-89.64548473282443,0
11856,3.4272417968749993,9.270067736816404,0.3557316772460938,-87.23492366412215,-189.98408015267177,-89.72182061068702,0
11881,4.356192041015625,8.860659252929686,0.5712098266601562,-121.37232824427481,-158.02224809160305,-98.53098091603053,0
11906,5.227681445312499,8.910937487792967,1.3014413330078123,-120.75400763358779,-202.1596526717557,-114.309606870229,0
11932,3.563711291503906,9.351470593261718,1.0979341918945311,-117.37996183206107,-248.71690458015266,-121.25617175572519,0
11957,2.175074328613281,9.923684790039061,-0.0010043701171875002,-148.38759541984734,-201.34285877862595,-116.89739312977099,0
11982,3.6115953247070305,10.663493103027342,0.4922011718749999,-161.33416030534352,-191.67873664122138,-116.7447213740458,0
12007,3.4368186035156247,11.760037463378906,0.11391730957031249,-165.17385496183206,-230.1443854961832,-107.8592251908397,0
12032,3.4200591918945307,11.2788029296875,0.44910554199218744,-166.64713740458015,-248.71690458015266,-88.12640076335877,0
12057,3.8486212890625,11.295562341308592,1.3804499877929686,-166.27309160305344,-232.94591221374046,-51.08059923664122,0
12082,3.5134330566406247,12.854187622070311,1.0380791503906248,-148.81507633587788,-248.71690458015266,0.07970610687022894,0
12107,3.058534741210937,13.15585703125,-0.01776378173828125,-139.15858778625955,-248.71690458015266,56.59879007633588,0
12132,3.676238769531249,12.432808129882812,0.33897226562499994,-129.91431297709923,-244.3504923664122,109.94993511450382,0
12157,3.616383728027343,12.866158630371093,0.7771111694335937,-108.72347328244275,-216.81614122137404,149.90413358778628,0
12182,2.8430565917968744,13.100790393066404,0.19771436767578124,-96.24255725190841,-171.2970572519084,181.67512595419848,0
12207,3.336262133789062,12.609979052734374,-0.15423327636718748,-89.62423664122137,-134.92301145038167,202.72092748091603,0
12232,3.9826965820312497,11.13754503173828,0.45389394531249994,-91.14332061068703,-90.45736259541984,213.44611832061068,0
12257,4.346615234374999,9.818339916992187,0.7364097412109374,-96.96774809160306,-48.36575954198474,225.28581297709923,0
12282,5.012203295898437,9.78960949707031,0.3916447021484375,-110.98301526717557,-21.72453816793893,236.102606870229,0
12308,6.113536059570312,9.844676135253906,-0.20451151123046873,-125.76164122137405,-17.816141221374046,242.7285610687023,0
12333,6.0704404296874985,8.537442028808593,0.54966201171875,-135.17385496183206,-20.85430916030534,247.102606870229,0
12358,6.451118493652342,7.452868676757812,1.174548645019531,-153.79217557251908,25.855614503816795,251.02627099236642,0
12383,7.612306298828124,7.227813720703125,1.0165313354492187,-149.1280534351145,5.687675572519083,251.02627099236642,0
12408,8.186914697265625,5.6979188598632815,-0.15183907470703123,-135.18912213740458,-25.686370229007633,251.02627099236642,0
12433,7.5165382324218735,4.515183239746094,0.24080999755859375,-118.40286259541985,-46.258889312977104,251.02627099236642,0
12458,6.360138830566405,3.186401318359375,0.157012939453125,-89.77690839694657,-42.258889312977104,251.02627099236642,0
12483,6.554069165039063,1.292587805175781,-0.0010043701171875002,-66.76927480916031,-25.617667938931298,251.02627099236642,0
12508,6.264370764160156,0.28462890625,-0.8796763793945312,-38.07461832061068,-38.14438549618321,251.02627099236642,0
12533,5.3569683349609365,0.1457652099609375,-1.5883600708007812,-9.135687022900763,-51.319958015267176,251.02627099236642,0
12558,4.353797839355468,-1.4200426757812499,-1.5500528442382813,23.383396946564886,-75.75507251908397,247.43085114503816,0
12583,3.3290795288085935,-2.617143505859375,-0.5157577270507813,73.94064885496182,-121.47262977099236,237.04917175572518,0
12608,2.2085931518554682,-3.7184762695312497,-1.25077763671875,127.50553435114503,-163.05278244274808,221.53008778625954,0
12633,1.6076485351562493,-4.63784970703125,-1.7607425903320313,145.6429389312977,-106.92301145038168,200.18657633587787,0
12658,0.9588198852539058,-4.168586181640625,-0.9323488159179687,175.08568702290077,-100.6711030534351,183.73619465648855,0
12684,0.013110229492187209,-3.936348620605468,0.1043405029296875,216.52843511450382,-120.01461450381679,164.69802671755727,0
12709,-0.09223464355468769,-5.064017602539062,0.7842937744140625,250.6047709923664,-122.17491984732824,135.64459160305344,0
12734,-0.3508084228515629,-4.489409204101562,1.5432557006835936,250.6047709923664,-115.92301145038168,99.30871374045802,0
12759,-0.27419396972656296,-3.234847534179687,3.8991501342773436,250.6047709923664,-154.9764465648855,61.072072519083974,0
12784,-0.7290922851562502,-4.036905090332031,5.048366931152343,250.6047709923664,-206.1825534351145,18.759095419847327,0
12809,-1.4066513549804691,-3.1558388793945307,5.800146252441405,250.6047709923664,-208.54896564885496,-26.706553435114504,0
12834,-0.9134458129882816,-2.3777233398437496,6.614174816894531,250.6047709923664,-150.56423282442748,-71.12640076335877,0
12859,0.824744592285156,-2.0090162841796873,8.864724377441405,250.6047709923664,-116.6711030534351,-105.69891984732824,0
12884,2.230140966796874,-0.8909241088867188,9.221460424804686,250.6047709923664,-157.02224809160305,-135.36304198473283,0
12909,2.6347610473632805,0.17449562988281248,8.886272192382812,250.6047709923664,-188.36575954198472,-173.2332709923664,0
12934,3.5014620483398433,0.7634692382812499,8.677976647949219,250.6047709923664,-127.8085076335878,-201.96609541984733,0
12959,4.830243969726562,3.1696419067382813,8.936550427246093,250.6047709923664,-166.83904198473283,-227.36304198473283,0
12984,2.907700036621093,3.6772126586914062,6.60220380859375,229.7956106870229,-138.54896564885496,-245.6836526717557,0
13009,5.481466821289062,4.208725427246094,7.382713549804687,178.81851145038166,-68.77033969465649,-249.24090458015266,0
13034,5.627513122558594,6.004376672363281,6.781768933105468,164.25362595419847,-128.62530152671755,-244.30197328244273,0
13060,6.333802612304686,5.5853913818359375,6.832047167968749,137.17729007633588,-184.1596526717557,-228.24090458015266,0
13085,4.7368701049804685,7.117680444335937,5.077097351074218,84.25362595419847,-174.02224809160305,-193.8744923664122,0
13110,6.728845886230467,8.508711608886717,4.643746850585937,33.513167938931296,-165.9535458015267,-152.85922519083968,0
13135,6.321831604003905,8.83911143798828,4.524036767578124,5.795610687022901,-204.96881297709922,-125.05769847328244,0
13160,4.861368591308593,9.143175048828123,2.88640283203125,-20.883778625954196,-219.35812595419847,-105.87449236641221,0
13185,4.523786157226562,9.880589160156248,2.8720376220703123,-36.69293893129771,-248.71690458015266,-95.93556106870228,0
13210,2.778413146972656,9.672293615722655,2.8409130004882814,-50.38759541984733,-248.71690458015266,-92.29433969465649,0
13235,2.0745178588867184,11.944390991210936,-0.06085941162109375,-90.24255725190841,-234.00698091603053,-86.72182061068702,0
13260,3.2931665039062494,10.553359826660156,1.3996036010742186,-110.44103053435116,-248.71690458015266,-87.59968320610686,0
13285,0.5302577880859372,10.357035290527342,0.559238818359375,-117.08988549618321,-248.71690458015266,-78.39357633587785,0
13310,2.213381555175781,12.423231323242186,-0.8174271362304687,-151.8837786259542,-248.71690458015266,-62.20273664122137,0
13335,1.9452309692382812,11.702576623535155,-1.5548412475585938,-173.23492366412214,-220.3504923664122,-52.943194656488544,0
13360,1.557370300292968,11.362599987792967,-0.6785634399414062,-182.92958015267178,-177.785606870229,-49.07296564885496,0
13385,0.8845996337890623,11.297956542968748,0.2671462158203125,-144.7387404580153,-247.66346946564886,-33.01189694656488,0
13410,3.4559722167968747,11.582866540527343,0.08279268798828124,-121.19675572519084,-241.71690458015266,-15.248538167938932,0
13436,3.8031314575195303,10.910095874023437,-0.42477806396484374,-94.22729007633589,-240.79324045801528,10.682759541984732,0
13461,3.058534741210937,11.228524694824218,-1.011357470703125,-89.69293893129772,-206.8085076335878,52.072072519083974,0
13486,3.2907723022460935,10.723348144531249,0.099552099609375,-82.98301526717557,-172.77033969465649,99.28581297709924,0
13511,3.206975244140624,11.649904187011717,0.03490865478515624,-68.18148854961832,-162.08331679389312,137.32398091603054,0
13536,2.79517255859375,11.97312141113281,-0.3074621826171875,-76.12041984732825,-125.8619427480916,171.7285610687023,0
13561,2.2971786132812495,11.724124438476561,0.07800428466796874,-86.53263358778626,-101.47262977099236,205.30871374045802,0
13586,2.682645080566406,11.585260742187499,0.02293764648437499,-106.93721374045802,-62.16728625954199,232.0873396946565,0
13611,4.583641198730468,12.21732998046875,-0.41520125732421875,-118.64713740458016,-56.64820229007634,243.9346679389313,0
13636,4.176626916503905,10.531812011718749,0.8010531860351562,-125.2043893129771,-49.319958015267176,248.19420992366412,0
13661,4.502238342285156,9.839887731933592,-0.43914327392578123,-139.23492366412214,-18.999347328244273,251.02627099236642,0
13686,5.201345227050781,8.649969506835935,-0.9395314208984374,-155.2043893129771,-1.2207213740458016,251.02627099236642,0
13711,7.073610925292969,7.062613806152344,-1.2938732666015624,-161.72347328244274,4.130423664122137,251.02627099236642,0
13736,7.554845458984373,6.109721545410156,-0.8892531860351562,-145.74637404580153,-17.06804961832061,251.02627099236642,0
13761,6.872497985839844,4.687565759277343,-0.37449982910156243,-114.76927480916031,-35.381026717557255,251.02627099236642,0
13786,6.367321435546875,3.2175259399414062,-0.7671489013671875,-71.68530534351146,-47.510797709923665,251.02627099236642,0
13812,5.819049255371094,1.49130654296875,-1.6075136840820312,-41.02118320610687,-36.3352251908397,251.02627099236642,0
13837,4.9451656494140614,0.13858260498046873,-2.3688698120117184,-25.31889312977099,-15.182553435114503,251.02627099236642,0
13862,4.724899096679687,-0.9124719238281249,-1.4734383911132811,-9.54026717557252,3.3975992366412218,251.02627099236642,0
13887,4.7368701049804685,-1.7719903198242186,-0.9371372192382812,23.391030534351145,-17.9001106870229,251.02627099236642,0
13912,3.467943225097656,-1.9324018310546875,-0.7743315063476562,60.29179389312977,-43.08331679389313,251.02627099236642,0
13937,2.287601806640625,-4.130278955078125,-1.0831835205078124,86.1162213740458,-36.85430916030535,244.01863740458015,0
13962,1.8518571044921872,-4.2092876098632805,-0.48942150878906243,115.16202290076335,-41.27415648854962,227.18657633587787,0
13987,1.5693413085937493,-5.075988610839843,0.19771436767578124,143.6047709923664,-59.92301145038168,208.56825572519085,0
14012,0.29083762207031194,-4.570812060546874,0.5855750366210937,180.2612595419847,-84.92301145038168,190.04153816793894,0
14037,-0.6716314453125003,-4.2284412231445305,1.3229891479492186,210.10858778625953,-100.34285877862595,169.5987900763359,0
14062,-1.4976310180664065,-4.67615693359375,2.548820397949219,235.2841603053435,-92.89247709923664,146.7285610687023,0
14087,-1.9740771484375004,-5.267524743652343,4.557555590820312,250.6047709923664,-111.83904198473282,126.20184351145039,0
14112,-2.1488538696289066,-4.202105004882812,4.70599609375,250.6047709923664,-97.49553053435115,107.85833206106871,0
14137,-2.2925059692382814,-3.7448124877929683,5.780992639160155,250.6047709923664,-100.5795,90.88123282442749,0
14162,-2.3188421875,-3.342586608886718,7.13132237548828,250.6047709923664,-90.73980534351145,73.85069847328245,0
14188,-1.377920935058594,-3.574824169921875,8.754591101074219,250.6047709923664,-103.2207213740458,50.377416030534356,0
14213,-1.464112194824219,-2.313079895019531,9.50637042236328,250.6047709923664,-95.94591221374046,24.484286259541985,0
14238,-1.6197353027343753,-1.9946510742187498,10.131257055664062,250.6047709923664,-83.83904198473282,1.911767175572519,0
14263,-0.8392255615234379,-1.0154225952148437,10.416167053222656,247.99408396946563,-72.5413320610687,-26.309606870229008,0
14288,0.9133300537109372,-0.1128085693359375,11.230195617675781,247.16202290076336,-102.5413320610687,-63.79815648854961,0
14313,1.5861007202148434,0.23195646972656248,10.969227636718749,250.6047709923664,-169.57186641221372,-101.79815648854961,0
14338,0.8510808105468746,0.9406401611328125,10.39461923828125,243.20019083969464,-167.6711030534351,-129.92792748091603,0
14363,0.815167785644531,2.393920568847656,9.578196472167967,208.02461832061067,-125.94591221374046,-139.77525572519085,0
14388,2.9531898681640616,2.9828941772460937,9.33398790283203,178.16202290076336,-104.5795,-145.0118969465649,0
14413,5.313872705078125,4.333223913574218,10.36828302001953,171.7727099236641,-140.19782061068702,-160.515713740458,0
14438,3.692998181152343,5.334000207519531,9.005982275390624,176.32996183206106,-210.5565992366412,-178.01953053435113,0
14463,2.6898276855468746,5.860724572753906,6.966122460937499,132.66583969465648,-141.19782061068702,-186.92029389312978,0
14488,3.9276299438476556,6.9931819580078125,6.446580700683593,119.31469465648854,-141.83904198473283,-189.69891984732823,0
14514,4.897281616210937,8.432097155761717,5.359613146972656,105.51316793893129,-213.41919465648854,-188.56151526717557,0
14539,4.803907751464843,7.2373905273437495,5.6086101196289055,73.2841603053435,-248.71690458015266,-169.53098091603053,0
14564,5.993825976562499,7.4241382568359375,5.141740795898437,43.261259541984735,-248.71690458015266,-141.75235496183205,0
14589,4.81827296142578,9.54779512939453,3.741132824707031,13.116221374045802,-248.71690458015266,-118.54624809160305,0
14614,3.491885241699218,10.153528149414061,3.164130224609375,-32.234923664122135,-248.71690458015266,-95.35540839694656,0
14639,3.278801293945312,10.14155714111328,2.8409130004882814,-70.47156488549619,-248.71690458015266,-72.39357633587785,0
14664,2.5557523925781247,9.928473193359373,1.9550583862304687,-109.13568702290077,-248.71690458015266,-48.07296564885496,0
14689,2.1822569335937496,11.534982507324218,1.4714296508789062,-135.21202290076337,-248.71690458015266,-31.4241106870229,0
14714,2.301967016601562,11.40569561767578,0.31981865234374995,-159.0135496183206,-248.71690458015266,-22.76762213740458,0
14739,1.9141063476562499,10.48632218017578,2.455446533203125,-189.9601145038168,-217.2054541984733,-27.706553435114504,0
14764,3.2357056640624995,10.673069909667968,2.213632165527344,-185.36469465648855,-237.38102671755726,-20.63021755725191,0
14789,2.2804192016601554,11.822286706542968,1.2056732666015624,-187.2272900763359,-248.71690458015266,-9.920293893129772,0
14814,3.1016303710937496,10.826298815917967,0.7723227661132812,-196.70057251908398,-248.71690458015266,12.759095419847329,0
14839,3.7001807861328118,10.838269824218749,1.0739921752929686,-173.56316793893131,-248.71690458015266,46.6522251908397,0
14864,2.7855957519531245,11.403301416015623,-0.18056949462890623,-174.02118320610688,-246.6711030534351,81.81253053435115,0
14890,3.9108705322265616,11.599625952148436,-0.8365807495117187,-169.34942748091603,-219.6024007633588,115.94230152671756,0
14915,3.8534096923828116,10.768837976074217,-0.38886503906250003,-157.28835877862596,-202.96881297709922,153.34688167938933,0
14940,4.272394982910155,11.458368054199218,-0.2787317626953125,-153.68530534351146,-143.54896564885496,189.2705458015267,0
14965,4.523786157226562,12.181416955566405,-1.2052878051757812,-152.09751908396947,-112.92301145038168,212.46901908396947,0
14990,4.796725146484374,10.606032263183593,-0.7360242797851563,-151.56316793893131,-82.95354580152672,236.34688167938933,0
15015,5.574840686035155,10.567725036621093,-0.21887672119140625,-148.10515267175572,-45.877209923664125,251.02627099236642,0
15040,6.489425720214842,9.061772192382811,0.15222453613281248,-137.9448473282443,-35.564232824427485,251.02627099236642,0
15065,6.7623647094726556,6.962057336425781,0.34376066894531243,-116.21965648854962,-43.35812595419848,251.02627099236642,0
15090,6.5923763916015625,5.223866931152344,-0.5588533569335937,-112.9219465648855,-4.152019083969465,251.02627099236642,0
15115,6.862921179199218,4.1225341674804685,-1.6099078857421874,-115.47156488549619,13.015919847328245,251.02627099236642,0
15140,5.972278161621094,2.6908015747070313,-0.05128260498046875,-108.15858778625955,10.237293893129772,251.02627099236642,0
15165,5.969883959960938,0.7060083984375,0.5712098266601562,-88.86087786259543,6.244927480916031,251.02627099236642,0
15190,6.9491124389648435,-0.3618055419921875,-1.5835716674804687,-60.525,-28.41919465648855,251.02627099236642,0
15215,5.9004521118164055,-0.6467155395507812,-2.1462090576171873,-37.90667938931298,-52.11385114503817,251.02627099236642,0
15240,3.7959488525390617,-2.535740649414062,-0.5564591552734375,-21.944847328244272,-23.503164122137402,251.02627099236642,0
15266,3.5756822998046873,-3.8621283691406245,-0.75278369140625,6.29179389312977,-15.907744274809161,251.02627099236642,0
15291,4.107195068359374,-3.9818384521484367,-1.21247041015625,37.40629770992366,-35.31232442748092,251.02627099236642,0
15316,2.323514831542968,-3.957896435546875,-1.4207659545898437,75.9635496183206,-72.80850763358778,248.02627099236642,0
15341,0.5541998046874994,-4.6977047485351555,-1.1502211669921876,103.42156488549618,-79.96881297709923,237.46901908396947,0
15366,0.13521451416015573,-5.095142224121093,-1.0736067138671874,130.99408396946563,-72.6711030534351,229.14840839694656,0
15391,-0.8272545532226565,-4.463072985839843,-0.28591436767578127,156.40629770992365,-83.47262977099236,219.36214885496184,0
15416,-1.9764713500976565,-3.1534446777343748,0.7483807495117186,185.78797709923663,-86.4649961832061,205.81253053435114,0
15441,-2.0530858032226567,-4.7336177734375,2.4602349365234377,234.4520992366412,-141.24362213740457,187.41558396946564,0
15466,-2.536714538574219,-5.083171215820312,3.554385095214844,250.6047709923664,-166.41919465648854,161.4995534351145,0
15491,-3.120899743652344,-3.9435312255859367,4.684448278808593,250.6047709923664,-169.8085076335878,127.78962977099236,0
15516,-2.948517224121094,-2.7200941772460934,6.324476416015624,250.6047709923664,-187.83140839694656,86.88123282442749,0
15541,-3.2358214233398437,-3.213299719238281,7.7107191772460935,250.6047709923664,-178.04514885496184,50.24001145038168,0
15566,-2.826412939453125,-2.736853588867187,8.922185217285156,250.6047709923664,-169.91537786259542,21.24764503816794,0
15591,-2.938940417480469,-3.0552824096679685,10.001970166015624,250.6047709923664,-150.54896564885496,-10.500446564885497,0
15616,-1.109770349121094,-1.0489414184570311,10.59812637939453,250.6047709923664,-142.25125572519084,-38.27143893129771,0
15641,0.2118289672851561,-0.8909241088867188,11.376241918945311,250.6047709923664,-195.0146145038168,-71.18746946564885,0
15667,1.037828540039062,0.0021131103515625027,11.321175280761718,250.6047709923664,-195.67873664122138,-106.81342366412214,0
15692,2.251688781738281,1.1321762939453124,11.050630493164062,250.17729007633588,-224.9764465648855,-135.43937786259542,0
15717,2.7855957519531245,1.328500830078125,11.086543518066405,222.57423664122138,-184.17491984732823,-160.2943396946565,0
15742,3.3266853271484367,2.245480065917969,9.848741259765625,198.52843511450382,-146.45736259541985,-167.4775458015267,0
15767,5.002626489257812,4.359560131835938,9.063443115234374,187.39103053435113,-161.64820229007634,-176.15693511450382,0
15792,4.700957080078124,5.949310034179687,8.60615059814453,176.81851145038166,-200.6176679389313,-192.00426335877862,0
15817,3.659479357910156,6.8255878417968745,7.318070104980468,156.81851145038166,-195.77797328244273,-201.54624809160305,0
15842,4.212539941406249,7.960439428710937,4.44981651611328,136.74217557251907,-235.47262977099237,-197.24853816793893,0
15867,5.756800012207031,8.377030517578124,4.717967102050781,103.36812977099235,-248.71690458015266,-186.92792748091603,0
15892,5.373727746582031,6.96923994140625,4.100263073730468,65.7192748091603,-248.71690458015266,-163.17220229007634,0
15917,3.376963562011718,8.23337841796875,3.489741650390625,18.772709923664124,-248.71690458015266,-130.9355610687023,0
15942,2.665885668945312,10.189441174316405,1.5911397338867186,-29.32652671755725,-248.71690458015266,-106.87449236641221,0
15967,2.5605407958984374,10.189441174316405,1.6821193969726562,-81.36469465648855,-248.71690458015266,-85.01189694656489,0
15992,2.6706740722656246,10.77362637939453,1.1889138549804688,-125.18148854961832,-248.71690458015266,-63.61495038167939,0
16017,2.685039282226562,10.986710327148437,0.8465430175781249,-152.70820610687022,-248.71690458015266,-49.59968320610687,0
16042,2.6156074340820306,10.857423437499998,0.9135806640624999,-178.4333969465649,-241.2207213740458,-40.309606870229004,0
16067,2.4121002929687494,11.333869567871092,0.635853271484375,-189.28835877862596,-242.71690458015266,-34.34014122137404,0
16092,2.476743737792968,11.748066455078124,0.7675343627929687,-205.56316793893131,-214.73217175572518,-29.653118320610687,0
16118,2.3713988647460935,11.441608642578124,2.4027740966796873,-213.8990458015267,-196.22835496183205,-22.027164122137403,0
16143,3.623566333007812,12.533364599609374,1.9406931762695312,-175.67767175572519,-248.71690458015266,-5.958461832061069,0
16168,1.294008117675781,12.135927124023436,-0.264366552734375,-172.37996183206107,-248.71690458015266,32.27817938931298,0
16193,2.6203958374023433,11.700182421874999,0.3533374755859374,-161.86851145038167,-248.71690458015266,72.72856106870229,0
16218,3.1255723876953123,10.998681335449218,0.21447377929687497,-151.4868320610687,-208.1596526717557,105.16367557251908,0
16243,3.204581042480468,11.997063427734373,0.03490865478515624,-149.81507633587788,-163.02224809160305,133.43085114503816,0
16268,3.786372045898437,11.798344689941406,-0.3170389892578125,-141.31125954198473,-169.21308778625954,164.99573664122138,0
16293,4.104800866699218,10.649127893066405,0.6526126831054687,-137.12041984732824,-141.44972900763358,194.03390458015267,0
16318,4.025792211914062,11.235707299804686,-0.06564781494140626,-131.60896946564887,-111.97644656488549,214.78962977099238,0
16343,4.94037724609375,10.682646716308593,0.2001085693359375,-127.05935114503818,-93.54896564885496,222.03390458015267,0
16368,5.184585815429687,9.023464965820311,-0.12310865478515624,-125.39522900763359,-63.78560687022901,226.8048969465649,0
16393,6.015373791503905,7.232602124023437,-0.21408831787109375,-131.13568702290078,-26.022248091603053,235.50718702290078,0
16418,6.625895214843749,6.1480287719726565,-0.19972310791015624,-144.25782442748093,13.75637786259542,246.14077480916032,0
16443,6.894045800781249,4.903043908691406,0.137859326171875,-132.31125954198473,-6.831408396946564,251.02627099236642,0
16468,7.727227978515624,3.9573342529296873,0.20250277099609373,-118.19675572519084,-4.9001106870229005,251.02627099236642,0
16493,7.076005126953125,2.966134765625,-0.570824365234375,-93.3570610687023,-22.35049236641221,251.02627099236642,0
16519,5.756800012207031,1.1225994873046874,0.28151142578125,-76.24255725190841,-1.777973282442748,251.02627099236642,0
16544,5.558081274414062,0.8448720947265624,0.40840411376953123,-54.792175572519085,3.7869122137404583,251.02627099236642,0
16569,6.278735974121093,-0.5653126831054688,-0.609131591796875,-32.105152671755725,-27.526064885496183,251.02627099236642,0
16594,4.238876159667968,-1.5229933471679686,0.061244873046874995,-17.624236641221373,-23.06804961832061,251.02627099236642,0
16619,2.661097265624999,-2.6243261108398435,0.18813756103515625,-3.3036259541984734,-13.892477099236642,251.02627099236642,0
16644,3.096841967773437,-3.423989465332031,-0.6785634399414062,8.543702290076336,-16.297057251908395,251.02627099236642,0
16669,2.716163903808593,-4.496591809082031,-1.107125537109375,21.284160305343512,-27.72453816793893,251.02627099236642,0
16694,0.9516372802734372,-5.176545080566406,0.769928564453125,43.5513358778626,-38.60240076335878,249.41558396946564,0
16719,-0.09223464355468769,-5.983391040039062,0.540085205078125,63.00171755725191,-21.655835877862597,239.67512595419848,0
16744,0.4320955200195309,-6.598700866699218,-0.36492302246093744,87.94828244274808,-46.17491984732825,219.43085114503816,0
16769,-0.5255851440429691,-5.827767932128905,0.8752734375,109.93301526717556,-64.6711030534351,203.59115648854961,0
16794,-1.598187487792969,-6.263512634277343,1.6581773803710935,147.2841603053435,-87.80087404580152,192.14840839694656,0
16819,-2.603752185058594,-6.328156079101562,1.1218762084960936,172.00935114503815,-97.73217175572519,171.07970610687022,0
16844,-2.354755212402344,-4.625878698730468,2.769086950683594,199.10858778625953,-129.6558358778626,147.77436259541986,0
16869,-3.14244755859375,-6.225205407714843,5.737897009277344,250.6047709923664,-192.61003435114503,127.54535496183206,0
16894,-4.351519396972656,-5.562011547851562,5.555937683105468,250.6047709923664,-172.13675190839695,93.34688167938931,0
16919,-3.7098733520507814,-4.036905090332031,6.108998266601562,245.7956106870229,-150.47262977099237,64.13314122137405,0
16944,-1.6939555541992188,-3.646650219726562,7.38031934814453,250.6047709923664,-198.4649961832061,44.3697824427481,0
16970,-2.2733523559570314,-4.139855761718749,8.986828662109374,250.6047709923664,-222.1825534351145,23.972835877862597,0
16995,-3.025131677246094,-3.1917519042968747,8.910214208984375,250.6047709923664,-170.5565992366412,4.156041984732824,0
17020,-1.0451269042968754,-1.161468896484375,9.329199499511718,250.6047709923664,-118.61003435114503,-9.500446564885497,0
17045,0.664333081054687,-0.2875852905273437,10.313216381835936,250.6047709923664,-140.8619427480916,-25.973729007633587,0
17070,1.104866186523437,-0.06731873779296874,10.823181335449219,250.6047709923664,-171.94591221374046,-46.660751908396946,0
17095,0.9540314819335936,-0.11520277099609375,11.258926037597655,250.6047709923664,-152.0909503816794,-62.927927480916026,0
17120,1.4927268554687494,0.600663525390625,11.373847717285155,235.1162213740458,-132.44209541984733,-86.40120992366411,0
17145,2.5820886108398433,2.456169812011719,10.497569909667968,207.3604961832061,-119.2207213740458,-110.08823282442748,0
17170,4.009032800292968,4.050708117675781,11.064995703125,190.681106870229,-159.06041603053436,-137.60731679389312,0
17195,3.8174966674804685,4.658835339355469,10.370677221679687,168.10858778625953,-214.21308778625954,-163.22563740458014,0
17220,3.3147143188476553,5.319634997558594,8.342788415527343,114.16202290076335,-159.41919465648854,-181.2943396946565,0
17245,4.86376279296875,6.5071590209960934,8.51756513671875,81.45973282442748,-135.05278244274808,-191.0118969465649,0
17270,4.217328344726562,6.471245996093749,7.421020776367187,85.25362595419847,-185.7092709923664,-198.5386145038168,0
17295,2.306755419921875,9.001917150878905,3.872813916015625,85.26889312977099,-248.71690458015266,-187.18746946564886,0
17320,5.50780303955078,8.34111749267578,3.611845935058594,32.1925572519084,-248.71690458015266,-169.92029389312978,0
17345,5.701733374023436,9.250914123535155,3.137794006347656,16.093320610687023,-248.71690458015266,-154.43174427480915,0
17371,3.5732880981445305,8.434491357421873,3.8321124877929686,0.047519083969465636,-248.71690458015266,-138.0271641221374,0
17396,2.9699492797851557,7.302033972167968,2.7283855224609375,-5.845610687022901,-248.71690458015266,-122.73708778625954,0
17421,3.3242911254882808,8.204647998046873,3.097092578125,-9.952480916030535,-248.71690458015266,-110.31724045801526,0
17446,-0.44897069091796915,9.5166705078125,1.643812170410156,-33.173854961832056,-248.71690458015266,-93.28670610687023,0
17471,2.3498510498046867,12.629132666015623,-0.11113764648437499,-82.24255725190841,-248.71690458015266,-78.72945419847328,0
17496,2.0314222290039057,10.687435119628905,1.4283340209960937,-94.08988549618321,-248.71690458015266,-61.668385496183205,0
17522,0.9564256835937495,10.105644116210936,0.5903634399414062,-113.11278625954199,-248.71690458015266,-36.15693511450382,0
17547,0.3028086303710933,12.07607208251953,-0.570824365234375,-142.44103053435114,-248.71690458015266,-18.561515267175572,0
17572,3.376963562011718,12.53575880126953,-1.0807893188476563,-138.47156488549618,-248.71690458015266,6.675125954198473,0
17597,2.828691381835937,11.613991162109373,-0.20451151123046873,-106.23492366412215,-248.71690458015266,42.201843511450384,0
17622,1.6244079467773433,12.09522569580078,-2.7854609008789057,-105.87614503816795,-237.77797328244273,89.5377213740458,0
17647,3.187821630859374,12.07607208251953,-2.261130737304687,-100.93721374045802,-202.4878969465649,134.1789427480916,0
17672,2.064941052246093,11.55892452392578,-1.5716006591796874,-87.15858778625955,-147.1062175572519,170.46901908396947,0
17697,1.689051391601562,12.49026896972656,-2.598713171386718,-97.31125954198474,-62.373393129770996,202.20947709923664,0
17722,3.300349108886718,12.45196174316406,-2.0624119995117183,-108.72347328244275,-36.84667557251909,227.3697824427481,0
17747,3.1614854125976555,10.297180249023436,-0.417595458984375,-118.76164122137405,-1.2665229007633587,245.5224541984733,0
17772,3.731305407714843,10.88854805908203,-0.5492765502929687,-136.6242366412214,30.008286259541986,251.02627099236642,0
17797,4.329855822753905,10.469562768554686,0.4658649536132812,-159.15858778625955,56.939583969465644,251.02627099236642,0
17822,4.6602556518554685,8.503923205566405,0.655006884765625,-187.78454198473284,91.9319503816794,251.02627099236642,0
17847,6.628289416503905,6.959663134765624,0.22165638427734372,-229.21965648854962,145.2372938931298,248.67512595419848,0
17872,5.433582788085936,4.261397863769531,2.2878524169921874,-249.66240458015267,147.68004198473284,243.56825572519085,0
17897,5.881298498535156,2.52560166015625,3.3005997192382814,-246.46393129770993,111.64950763358779,251.02627099236642,0
17922,7.348944116210936,2.7315030029296876,3.949428369140625,-249.66240458015267,124.15332442748092,242.88886641221373,0
17947,6.027344799804687,2.6668595581054686,3.298205517578125,-246.2043893129771,81.10752290076336,226.7285610687023,0
17973,5.155855395507812,0.6988257934570312,4.045196435546875,-222.41812977099238,23.07698854961832,221.9346679389313,0
17998,4.81827296142578,-0.9292313354492188,4.7443033203125,-169.4868320610687,-56.53369847328245,220.35451526717557,0
18023,5.921999926757812,-1.7576251098632811,3.2838403076171874,-135.68530534351146,-72.70927099236641,210.43848473282443,0
18048,5.311478503417968,-2.054506115722656,1.0476559570312498,-98.87614503816795,-111.28179007633588,208.00337022900763,0
18073,2.1654975219726555,-2.9427549316406245,-1.1981052001953125,-87.76164122137405,-72.93064503816794,214.94230152671756,0
18098,3.807919860839843,-4.3601223144531245,0.7316213378906249,-84.10515267175573,-34.014614503816794,218.68275954198472,0
18123,4.423229687499999,-4.467861389160156,0.8249952026367187,-59.50209923664122,-49.80850763358779,211.75146183206107,0
18148,3.185427429199218,-4.31223828125,0.6166996582031249,-9.448664122137405,-112.49553053435115,206.43085114503816,0
18173,2.6730682739257805,-4.455890380859374,-0.5349113403320312,21.772709923664124,-113.95354580152672,202.6674923664122,0
18198,-0.09702304687500041,-5.530886926269531,0.291088232421875,71.15438931297709,-171.38102671755726,201.05680534351146,0
18223,-0.5519213623046877,-6.184503979492187,-0.5420939453125,84.3604961832061,-93.32759160305343,197.47665267175572,0
18248,-1.6508599243164066,-6.488567590332031,0.7555633544921875,124.54370229007633,-96.31232442748092,195.46901908396947,0
18273,-2.0243553833007812,-5.997756249999999,0.7771111694335937,169.3070610687023,-92.67873664122136,191.90413358778628,0
18298,-2.938940417480469,-5.004162561035156,1.6078991455078124,217.94828244274808,-112.19018702290076,182.72092748091603,0
18323,-3.906197888183594,-4.345757104492187,3.8776023193359372,250.6047709923664,-161.4878969465649,166.05680534351146,0
18348,-4.696284436035157,-4.834174243164062,5.419468188476562,250.6047709923664,-183.96881297709922,139.7667290076336,0
18373,-4.804023510742187,-3.711293664550781,6.281380786132812,250.6047709923664,-198.96881297709922,102.56825572519084,0
18399,-4.380249816894532,-1.1973819213867187,7.6364989257812494,250.6047709923664,-224.86957633587787,55.42321755725191,0
18424,-3.1256881469726565,-2.0042278808593745,10.705865454101561,250.6047709923664,-231.2588893129771,8.133141221374046,0
18449,-2.8575375610351563,-1.1183732666015624,10.684317639160156,250.6047709923664,-248.71690458015266,-33.88212595419847,0
18474,-2.1871610961914065,0.7107968017578125,10.657981420898437,250.6047709923664,-234.45736259541985,-84.33250763358778,0
18499,0.027475439453124473,2.21914384765625,11.534259228515625,250.6047709923664,-221.48026335877861,-130.0271641221374,0
18524,2.723346508789062,1.6972078857421873,12.238154516601561,250.6047709923664,-239.73980534351145,-163.54624809160305,0
18549,2.0290280273437498,2.4705350219726565,11.13442755126953,250.6047709923664,-211.785606870229,-186.01953053435113,0
18574,0.32435644531249963,4.100986352539063,8.512776733398436,243.40629770992365,-192.75507251908397,-191.99662977099237,0
18599,2.629972644042968,5.884666589355469,6.932603637695312,210.42919847328244,-172.77033969465649,-182.75235496183205,0
18624,4.159867504882812,8.037053881835936,6.848806579589843,174.1009541984733,-198.16728625954198,-174.99662977099237,0
18649,5.368939343261718,7.747355480957031,7.126533972167968,136.42919847328244,-241.9535458015267,-157.95082824427482,0
18674,4.250847167968749,7.258938342285156,6.018018603515625,95.45973282442748,-248.71690458015266,-133.56914885496184,0
18699,4.1359254882812495,9.459209667968748,5.208778442382812,44.03988549618321,-241.2207213740458,-123.63785114503817,0
18724,2.907700036621093,10.471956970214842,4.284616601562499,-3.1356870229007634,-248.71690458015266,-125.88212595419847,0
18749,3.072899951171874,10.948403100585937,3.65254736328125,-70.21202290076336,-219.94591221374046,-130.2180038167939,0
18774,2.383369873046875,12.001851831054687,3.3317243408203123,-114.94484732824428,-229.3504923664122,-134.82869083969464,0
18799,3.187821630859374,11.01065234375,3.252715686035156,-168.26545801526717,-189.4649961832061,-138.40884351145039,0
18825,2.5078683593749993,12.823063000488279,3.3221475341796873,-184.9601145038168,-210.57186641221372,-140.58441603053436,0
18850,1.7896078613281245,12.8877064453125,3.554385095214844,-183.4104961832061,-248.71690458015266,-140.79052290076336,0
18875,1.171903833007812,10.90770167236328,3.6669125732421874,-172.40286259541986,-248.71690458015266,-128.8210572519084,0
18900,0.6499678710937498,10.266055627441405,4.986117687988281,-170.91431297709923,-248.71690458015266,-114.65311832061069,0
18925,1.0617705566406248,11.429637634277343,4.696419287109374,-151.70057251908398,-248.71690458015266,-89.68365267175572,0
18950,0.9947329101562494,11.695394018554687,2.014913427734375,-158.9601145038168,-248.71690458015266,-55.91266030534351,0
18975,1.9045295410156244,11.721730236816406,2.4147451049804687,-181.83797709923664,-248.71690458015266,-13.332507633587786,0
19000,2.0386048339843743,12.009034436035154,2.7858463623046874,-179.93721374045802,-237.19018702290077,34.74382824427481,0
19025,2.251688781738281,13.163039636230467,2.15856552734375,-178.93721374045802,-209.30469083969464,85.24764503816795,0
19050,2.8765754150390617,13.234865686035155,1.9957598144531248,-182.47156488549618,-178.23598854961833,137.9728358778626,0
19075,3.7839778442382803,12.94995568847656,2.3716494750976564,-185.70057251908398,-146.5031641221374,181.02627099236642,0
19100,4.404076074218749,11.606808557128906,2.299823425292969,-188.08225190839696,-115.15965267175572,213.99573664122138,0
19125,4.6051890136718745,10.464774365234375,2.4147451049804687,-194.02881679389313,-74.785606870229,240.3316145038168,0
19150,5.6179363159179685,9.545400927734374,2.50333056640625,-189.90667938931298,-65.86957633587785,251.02627099236642,0
19175,5.986643371582031,7.7808743041992185,3.8392950927734373,-174.70057251908398,-60.54133206106871,251.02627099236642,0
19200,5.529350854492187,6.540677844238281,3.1018809814453125,-150.34942748091603,-74.5413320610687,251.02627099236642,0
19225,5.728069592285155,4.893467102050781,2.2950350219726565,-132.85324427480916,-64.9382786259542,251.02627099236642,0
19251,5.433582788085936,3.4114562744140624,1.4379108276367187,-117.79217557251908,-49.41919465648855,251.02627099236642,0
19276,5.230075646972655,1.8480425903320312,1.634235363769531,-96.44866412213742,-52.09095038167939,251.02627099236642,0
19301,5.194162622070312,0.5886925170898437,1.650994775390625,-67.87614503816795,-48.83140839694657,251.02627099236642,0
19326,5.1486727905273435,-1.15189208984375,1.2798935180664062,-37.07461832061068,-57.41919465648855,251.02627099236642,0
19351,3.681027172851562,-1.4751093139648437,0.7866879760742187,4.536068702290076,-92.51079770992366,251.02627099236642,0
19376,2.572511804199218,-2.7392477905273434,-0.3122505859375,27.8337786259542,-76.48789694656489,251.02627099236642,0
19401,2.1056424804687497,-3.6059487915039057,-0.18535789794921875,53.78797709923664,-76.64056870229007,251.02627099236642,0
19426,0.9181184570312495,-4.216470214843749,0.5975460449218749,89.22309160305343,-98.41919465648854,251.02627099236642,0
19451,0.45364333496093723,-4.798261218261718,0.5089605834960937,124.7192748091603,-96.77033969465649,248.62932442748092,0
19476,0.1423971191406248,-4.5660236572265624,0.7866879760742187,161.01698473282443,-114.52606488549618,229.30108015267177,0
19501,-1.3635557250976564,-4.508562817382812,2.290246618652344,215.3070610687023,-157.4649961832061,210.22474427480915,0
19526,-1.962106140136719,-4.479832397460937,3.554385095214844,250.6047709923664,-177.8619427480916,185.33924809160305,0
19551,-2.8647201660156254,-5.415965246582031,5.56790869140625,250.6047709923664,-220.23598854961833,148.60642366412213,0
19576,-3.2118794067382814,-3.9507138305664062,5.034001721191406,250.6047709923664,-186.00698091603053,95.40031679389314,0
19601,-1.253422448730469,-2.5189812377929686,7.193571618652343,250.6047709923664,-170.28942366412213,48.072072519083974,0
19626,0.6044780395507807,-2.3585697265624996,9.075414123535156,250.6047709923664,-248.71690458015266,-2.004263358778626,0
19651,0.4392781249999995,-3.1247142578125,9.788886218261718,250.6047709923664,-248.71690458015266,-56.01953053435114,0
19676,0.7912257690429683,-2.9188129150390623,9.56383126220703,250.6047709923664,-237.63293511450382,-94.31724045801526,0
19702,0.7337649291992183,-1.3769470458984374,8.922185217285156,250.6047709923664,-210.96117938931297,-122.59968320610686,0
19727,2.0338164306640625,1.3787790649414062,8.282933374023436,250.6047709923664,-142.25125572519084,-146.7294541984733,0
19752,3.882140112304687,2.245480065917969,8.390672448730468,250.6047709923664,-145.47262977099237,-172.73708778625954,0
19777,5.687368164062499,3.7705865234375,9.391448742675781,228.33759541984733,-172.39629389312978,-204.2943396946565,0
19802,5.131913378906249,3.351601232910156,8.962886645507812,195.681106870229,-120.72453816793893,-236.31724045801528,0
19827,2.3881582763671867,5.4561044921874995,4.528825170898437,188.81087786259542,-174.77033969465649,-238.49281297709922,0
19852,5.1869800170898435,7.661164221191406,4.478546936035156,142.42919847328244,-226.51079770992365,-239.53098091603053,0
19877,5.625118920898436,6.420967761230469,5.38834356689453,93.55133587786258,-248.71690458015266,-237.309606870229,0
19902,1.8614339111328118,6.935721118164063,4.538401977539062,41.61240458015267,-248.71690458015266,-215.83632442748092,0
19927,3.4416070068359366,9.12641563720703,4.186454333496093,-1.2043893129770993,-248.71690458015266,-192.97372900763358,0
19952,3.0896593627929683,9.717783447265624,2.723597119140625,-45.914312977099236,-248.71690458015266,-174.71418702290077,0
19977,2.8262971801757804,10.941220495605467,2.819365185546875,-92.50209923664123,-248.71690458015266,-159.34014122137404,0
20002,2.5054741577148434,12.499845776367186,2.0292786376953127,-130.44866412213742,-248.71690458015266,-150.20273664122138,0
20027,2.045787438964843,12.389712499999998,0.31024184570312496,-165.5097328244275,-248.71690458015266,-137.36304198473283,0
20052,1.3849877807617181,12.600402246093749,1.08596318359375,-196.47156488549618,-225.34285877862595,-125.4622786259542,0
20077,-0.08984044189453178,14.199728955078124,1.9837888061523434,-193.26545801526717,-228.22835496183205,-101.8210572519084,0
20102,0.8869938354492182,15.571606506347655,2.637405859375,-176.18912213740458,-248.71690458015266,-67.01189694656489,0
20128,0.8798112304687495,15.301061718749999,0.6813431030273437,-178.08225190839696,-248.71690458015266,-26.462278625954198,0
20153,1.8231266845703118,14.096778283691405,0.9423110839843749,-185.10515267175572,-227.25125572519084,23.77436259541985,0
20178,1.8159440795898432,13.395277197265624,1.7156382202148437,-168.2959923664122,-241.2588893129771,79.71329389312977,0
20203,2.4121002929687494,14.020163830566405,1.3229891479492186,-165.86087786259543,-190.30469083969464,128.51482061068702,0
20228,3.4847026367187492,12.530970397949217,1.883232336425781,-164.34942748091603,-158.03751526717556,170.8583320610687,0
20253,2.5557523925781247,10.759261169433593,2.4458697265625,-167.525,-110.35049236641221,213.54535496183206,0
20278,2.380975671386718,11.058536376953123,2.8073941772460937,-198.90667938931298,-27.617667938931298,249.07970610687022,0
20303,4.128742883300781,10.42886134033203,3.0180839233398435,-228.74637404580153,2.5655381679389313,251.02627099236642,0
20328,4.289154394531249,9.289221350097655,3.4777706420898435,-244.02118320610688,-4.388660305343512,251.02627099236642,0
20353,4.346615234374999,7.938891613769531,5.517630456542968,-243.51736641221373,-20.823774809160305,243.94993511450383,0
20378,4.140713891601562,6.631657507324219,4.3899614746093745,-247.00591603053437,-5.91537786259542,232.30108015267177,0
20403,5.155855395507812,4.608557104492188,4.011677612304687,-249.66240458015267,14.183858778625956,223.36214885496184,0
20428,6.027344799804687,5.010782983398437,4.35404844970703,-245.86851145038167,3.9472175572519084,213.59115648854961,0
20453,6.2236693359375,0.8376894897460937,3.6142401367187498,-216.6242366412214,-32.71690458015267,211.23237786259543,0
20478,5.984249169921875,-0.28997949218749997,3.2886287109375,-177.70057251908398,-39.12911832061069,224.26291221374046,0
20504,5.632301525878906,-1.5589063720703125,2.5224841796875,-131.89141221374047,-57.3352251908397,237.102606870229,0
20529,4.949954052734374,-1.8773351928710935,0.7771111694335937,-107.82270992366412,-35.71690458015267,245.11787404580153,0
20554,4.011427001953124,-1.6403092285156249,0.10673470458984374,-89.86087786259543,-11.38866030534351,249.88123282442749,0
20579,2.960372473144531,-3.3449808105468746,0.4562881469726562,-56.46393129770992,-44.12148473282443,250.4079503816794,0
20604,2.471955334472656,-4.704887353515624,0.2767230224609375,-23.00591603053435,-50.49553053435115,248.01863740458015,0
20629,1.6244079467773433,-4.645032312011718,0.48980697021484365,18.52080152671756,-78.9382786259542,247.96520229007635,0
20654,0.3099912353515619,-4.532504833984374,0.42037512207031247,61.085687022900764,-96.17491984732824,248.2171106870229,0
20679,-1.3372195068359378,-5.24358272705078,0.6861315063476562,97.9635496183206,-99.23598854961831,242.5987900763359,0
20704,-2.328418994140625,-4.494197607421874,2.127440905761719,145.91774809160304,-112.60240076335877,240.84306488549618,0
20729,-2.555868151855469,-4.4534961791992185,3.3149649291992187,199.82614503816794,-133.39629389312978,229.3163473282443,0
20754,-4.047455786132812,-4.891635083007812,4.825706176757812,249.69637404580152,-157.2970572519084,205.04917175572518,0
20779,-4.423345446777343,-3.570035766601562,5.950980957031249,250.6047709923664,-150.64820229007634,170.36214885496184,0
20804,-4.071397802734375,-4.044087695312499,7.454539599609374,250.6047709923664,-145.1062175572519,134.24764503816795,0
20829,-3.714661755371094,-3.184569299316406,8.603756396484375,250.6047709923664,-133.2741564885496,102.6140572519084,0
20854,-3.4489053710937503,-2.2029466186523434,9.300469079589844,250.6047709923664,-141.00698091603053,77.42321755725192,0
20879,-2.8383839477539063,-1.6450976318359374,9.772126806640625,250.6047709923664,-149.991713740458,57.77436259541985,0
20905,-2.4098218505859377,-1.6834048583984373,10.734595874023437,250.6047709923664,-134.0909503816794,36.507187022900766,0
20930,-1.2701818603515627,-0.8957125122070313,11.730583764648436,250.6047709923664,-159.64056870229007,9.339248091603054,0
20955,-0.9924544677734377,1.800158557128906,11.014717468261718,250.6047709923664,-196.02224809160305,-37.3859427480916,0
20980,-0.44897069091796915,2.068309143066406,11.543836035156248,250.6047709923664,-210.44972900763358,-85.90502671755725,0
21005,0.731370727539062,1.7067846923828123,12.08013720703125,250.6047709923664,-185.48026335877861,-127.46227862595418,0
21030,2.0721236572265624,3.033172412109375,11.917331494140624,250.6047709923664,-248.71690458015266,-163.36304198473283,0
21055,1.1024719848632807,3.926209631347656,8.361942028808594,244.2612595419847,-248.71690458015266,-189.2943396946565,0
21080,1.8470687011718745,5.559055163574219,6.405879272460937,203.681106870229,-248.71690458015266,-196.2332709923664,0
21105,3.8174966674804685,6.7681270019531246,6.808105151367187,137.67347328244273,-248.71690458015266,-200.3859427480916,0
21130,3.041775329589843,8.695459338378905,5.826482470703124,99.1925572519084,-248.71690458015266,-192.37830916030535,0
21155,3.6283547363281246,8.137610351562499,5.256662475585937,49.32232824427481,-248.71690458015266,-177.04243129770992,0
21180,2.1822569335937496,9.26049093017578,3.750709631347656,-9.105152671755725,-248.71690458015266,-159.66075190839695,0
21205,2.0146628173828116,11.630750573730467,3.099486779785156,-70.38759541984733,-236.81614122137404,-149.79052290076336,0
21230,3.7648242309570303,12.023399645996092,3.3101765258789064,-121.0364503816794,-216.5947671755725,-145.26380534351145,0
21256,2.625184240722656,11.104026208496093,3.6860661865234374,-153.0898854961832,-205.98408015267177,-138.75235496183205,0
21281,1.2772487060546869,12.310703845214842,3.834506689453125,-161.6013358778626,-219.66346946564886,-125.66075190839695,0
21306,1.7608774414062491,13.158251232910155,1.2703167114257812,-155.54026717557252,-248.71690458015266,-97.88975954198473,0
21331,2.682645080566406,11.800738891601561,1.6845135986328124,-158.26545801526717,-248.71690458015266,-62.33250763358778,0
21356,3.020227514648437,10.349852685546873,3.2263794677734374,-139.1280534351145,-248.71690458015266,-18.370675572519083,0
21381,3.3530215454101553,10.941220495605467,3.1353998046875,-129.98301526717557,-222.5413320610687,19.293446564885496,0
21406,3.4032997802734366,10.596455456542968,2.702049304199219,-115.9219465648855,-210.58713358778627,49.42321755725191,0
21431,2.8765754150390617,10.088884704589843,2.1011046875,-115.17385496183206,-193.8237748091603,83.70566030534351,0
21456,2.8454507934570303,10.06494268798828,1.9670293945312498,-134.47156488549618,-149.98408015267177,115.28581297709924,0
21481,3.185427429199218,10.215777392578124,2.359678466796875,-152.3570610687023,-117.13675190839695,136.02627099236642,0
21507,3.192610034179687,10.26366142578125,2.5751566162109376,-172.4333969465649,-82.58713358778625,149.8583320610687,0
21532,3.673844567871093,10.402525122070312,2.8289419921875,-195.1280534351145,-58.18255343511451,156.27817938931298,0
21557,5.330632116699218,9.67468781738281,2.769086950683594,-217.79217557251908,-54.80850763358779,162.2171106870229,0
21582,5.8621448852539055,8.460827575683593,3.355666357421875,-238.0898854961832,-48.35812595419848,174.04917175572518,0
21607,5.869327490234375,7.823969934082031,3.738738623046875,-249.66240458015267,-22.953545801526715,185.94230152671756,0
21632,6.898834204101562,7.452868676757812,4.356442651367187,-249.66240458015267,1.0998893129770995,190.68275954198472,0
21658,7.166984790039062,6.416179357910156,4.066744250488281,-247.12041984732824,-36.816141221374046,197.30871374045802,0
21683,6.551674963378905,4.191966015625,4.248703576660156,-224.6166030534351,-35.40392748091603,215.42321755725192,0
21708,7.0831877319335925,3.772980725097656,3.3436953491210937,-203.97538167938933,-18.42682824427481,228.83543129770993,0
21733,7.358520922851562,2.882337707519531,2.548820397949219,-179.12041984732824,-33.15965267175573,238.75909541984734,0
21758,6.3697156372070305,1.2255501586914062,2.5943102294921876,-151.47919847328245,-48.999347328244276,249.7819961832061,0
21783,5.323449511718749,-0.04577092285156251,2.1226525024414062,-122.34942748091603,-46.5795,251.02627099236642,0
21808,5.43837119140625,-1.602002001953125,1.2727109130859373,-94.63187022900765,-49.54133206106871,251.02627099236642,0
21833,3.7025749877929686,-0.9268371337890624,0.6885257080078124,-74.78454198473283,-43.90774427480916,251.02627099236642,0
21858,2.7281349121093745,-2.973879553222656,0.6430358764648437,-47.63950381679389,-57.08331679389313,251.02627099236642,0
21883,1.763271643066406,-3.6873516479492183,-0.11353184814453125,-18.723473282442747,-64.77797328244274,251.02627099236642,0
21908,0.9133300537109372,-4.393641137695312,-0.40083604736328127,8.291793893129771,-74.10621755725191,251.02627099236642,0
21933,-0.44897069091796915,-3.8525515624999995,0.386856298828125,39.2307251908397,-86.88484351145038,251.02627099236642,0
21958,-1.0547037109375004,-4.2859020629882805,0.51135478515625,87.20782442748092,-119.2970572519084,251.02627099236642,0
21983,-2.7474042846679687,-4.724040966796874,1.385238391113281,139.83377862595418,-145.42682824427482,251.02627099236642,0
22008,-4.224626708984375,-4.494197607421874,1.9550583862304687,183.16202290076336,-147.96881297709922,245.86596564885497,0
22033,-5.024290063476562,-5.030498779296875,3.2958113159179687,205.43683206106869,-132.41919465648854,223.74382824427482,0
22059,-4.94288720703125,-4.831780041503905,5.27342188720703,223.43683206106869,-140.98408015267177,198.3163473282443,0
22084,-5.239768212890625,-3.6993226562499997,6.911055822753905,242.3604961832061,-185.85430916030535,164.3316145038168,0
22109,-5.732973754882813,-4.235623828124999,7.818458251953125,250.55896946564886,-189.73217175572518,135.98046946564887,0
22134,-5.797617199707031,-2.554894262695312,8.910214208984375,250.6047709923664,-195.75507251908397,110.1407748091603,0
22159,-4.811206115722657,-3.672986437988281,9.855923864746092,250.6047709923664,-200.96117938931297,78.39268320610687,0
22184,-4.2892701538085936,-3.6155255981445307,10.806421923828124,250.6047709923664,-195.13675190839695,39.73619465648855,0
22209,-3.7481805786132814,-1.0896428466796875,10.401801843261717,250.6047709923664,-207.1062175572519,0.8888664122137404,0
22234,-3.156812768554688,-0.6993879760742188,10.861488562011719,250.6047709923664,-181.54896564885496,-40.798156488549616,0
22259,-0.6357184204101565,-0.017040502929687507,12.824733923339842,250.6047709923664,-195.48026335877861,-82.56914885496182,0
22284,0.317173840332031,2.4729292236328124,13.116826525878905,250.6047709923664,-248.71690458015266,-138.5004465648855,0
22309,-0.784158923339844,1.8719846069335937,11.112879736328123,250.6047709923664,-248.71690458015266,-179.58441603053436,0
22334,0.2214057739257811,3.8472009765625,8.251808752441406,210.17729007633588,-131.3504923664122,-198.0653320610687,0
22360,2.5006857543945307,7.651587414550781,7.24624405517578,202.2459923664122,-243.8085076335878,-207.6302175572519,0
22385,4.435200695800781,6.691512548828125,7.277368676757812,150.78034351145038,-248.71690458015266,-215.7828893129771,0
22410,2.8765754150390617,6.5430720458984375,7.1672354003906245,108.49026717557251,-245.73980534351145,-197.14930152671755,0
22435,3.149514404296874,6.847135656738281,7.552701867675781,79.24599236641221,-225.83140839694656,-172.72182061068702,0
22460,2.778413146972656,8.46322177734375,6.628540026855468,58.81851145038168,-248.1596526717557,-154.04243129770992,0
22485,1.9955092041015616,10.847846630859374,4.53361357421875,11.078053435114503,-234.93064503816794,-140.98136259541985,0
22510,2.457590124511718,10.550965624999998,4.741909118652344,-33.525,-240.99934732824428,-128.7294541984733,0
22535,2.5413871826171874,11.171063854980467,4.404326684570312,-77.54790076335878,-236.53369847328244,-119.67601908396946,0
22560,2.436042309570312,11.08008419189453,4.509671557617187,-103.05171755725192,-248.5947671755725,-109.18746946564885,0
22585,1.9380483642578117,11.314715954589843,4.7634569335937496,-130.05171755725192,-209.0146145038168,-105.37830916030534,0
22610,0.45364333496093723,10.799962597656249,3.451434423828125,-132.79217557251908,-238.02988167938932,-87.41647709923664,0
22635,2.227746765136718,12.243666198730468,2.4099567016601564,-143.2272900763359,-248.71690458015266,-71.75998854961831,0
22660,2.4982915527343748,10.90770167236328,3.075544763183594,-156.44103053435114,-229.8085076335878,-50.55388167938931,0
22685,2.4504075195312494,10.297180249023436,3.7076140014648438,-148.05935114503816,-214.6940038167939,-27.09586641221374,0
22710,2.9891028930664056,10.649127893066405,2.630223254394531,-135.37232824427483,-210.8237748091603,-0.7523549618320612,0
22736,3.056140539550781,10.05776008300781,2.27348720703125,-137.70057251908398,-183.07568320610687,25.77436259541985,0
22761,3.690603979492187,9.329922778320311,2.5344551879882813,-141.6242366412214,-158.5795,51.91176717557252,0
22786,3.7001807861328118,9.052195385742186,1.8090120849609375,-158.97538167938933,-115.31995801526718,76.72856106870229,0
22811,3.6499025512695304,9.37541260986328,2.1633539306640626,-184.19675572519085,-84.4649961832061,101.1789427480916,0
22836,4.466325317382812,10.117615124511717,3.6956429931640624,-196.37996183206107,-67.90774427480916,113.68275954198474,0
22861,4.363374645996093,9.897348571777343,3.9159095458984376,-210.33416030534352,-48.47262977099237,119.96520229007633,0
22886,4.542939770507812,9.729754455566406,3.8033820678710937,-232.53263358778628,-29.464996183206107,130.2171106870229,0
22911,5.965095556640624,9.435267651367186,4.236732568359375,-247.83797709923664,-16.747438931297708,140.3316145038168,0
22936,5.986643371582031,8.333934887695312,5.467352221679687,-249.66240458015267,-31.098583969465647,152.33924809160305,0
22961,6.635472021484374,7.713836657714843,5.563120288085937,-244.21202290076337,-33.12148473282443,171.19420992366412,0
22986,7.310636889648436,6.2054896118164065,4.852042395019531,-235.96774809160306,-31.235988549618323,187.2705458015267,0
23011,6.589982189941405,4.941351135253906,3.9183037475585936,-218.77690839694657,-52.08331679389313,206.07970610687022,0
23036,5.70652177734375,3.926209631347656,3.592692321777344,-206.37232824427483,-36.205454198473284,222.50718702290078,0
23061,5.443159594726562,2.283787292480469,3.597480725097656,-186.95248091603054,-24.999347328244273,234.01863740458015,0
23087,4.9451656494140614,0.5096838623046874,3.6142401367187498,-164.66240458015267,-16.648202290076334,240.46901908396947,0
23112,4.815878759765624,-0.61559091796875,2.9079506469726564,-130.18912213740458,-41.15965267175573,250.83543129770993,0
23137,4.346615234374999,-1.8773351928710935,1.356507971191406,-111.45629770992367,-31.38102671755725,251.02627099236642,0
23162,3.355415747070312,-2.3633581298828124,1.4379108276367187,-94.05935114503818,-33.89247709923664,251.02627099236642,0
23187,2.704192895507812,-2.698546362304687,1.7850700683593748,-47.38759541984733,-92.61766793893129,251.02627099236642,0
23212,1.6459557617187492,-4.149432568359375,0.904003857421875,12.337595419847329,-163.3504923664122,251.02627099236642,0
23237,0.5470171997070308,-5.102324829101562,-0.06564781494140626,53.33759541984733,-151.57186641221372,251.02627099236642,0
23262,-1.1217413574218753,-4.654609118652344,0.15222453613281248,64.65820610687022,-64.88484351145038,251.02627099236642,0
23287,-1.502419421386719,-5.554828942871093,1.2751051147460937,107.61240458015267,-85.10621755725191,250.30108015267177,0
23312,-2.3116595825195314,-5.370475415039062,2.4722059448242186,152.62767175572517,-116.61766793893129,232.30871374045802,0
23337,-3.8990152832031253,-5.174150878906249,2.9175274536132814,195.0780534351145,-159.5031641221374,206.65985877862596,0
23362,-4.916550988769531,-4.692916345214844,3.8129588745117187,205.99408396946563,-137.63293511450382,180.02627099236642,0
23387,-4.8519075439453125,-4.817414831542968,5.888731713867187,228.74217557251907,-150.57186641221372,155.90413358778628,0
23412,-4.222232507324219,-4.455890380859374,6.848806579589843,250.6047709923664,-166.53369847328244,128.0644389312977,0
23438,-3.8654964599609376,-2.617143505859375,7.641287329101562,250.6047709923664,-211.89247709923663,100.22474427480917,0
23463,-4.169560070800781,-2.4447609863281246,8.36433623046875,250.6047709923664,-222.373393129771,69.84306488549619,0
23488,-3.8918326782226567,-2.1694277954101557,8.656428833007812,250.6047709923664,-192.7474389312977,36.95756870229008,0
23513,-3.5063662109375002,-0.8885299072265624,8.95091563720703,250.6047709923664,-127.3504923664122,1.965202290076336,0
23538,-2.266169750976563,0.3732143676757812,9.87028907470703,250.6047709923664,-89.16728625954198,-29.164568702290076,0
23563,-1.9309815185546877,1.8336773803710935,10.224630920410155,250.6047709923664,-88.70163740458015,-60.355408396946565,0
23588,-1.5646686645507815,2.733897204589844,11.495952001953125,250.6047709923664,-103.88484351145038,-85.76762213740457,0
23613,-0.28616497802734386,3.303717199707031,12.123232836914061,250.6047709923664,-103.34285877862595,-107.50808015267175,0
23638,0.288443420410156,3.835229968261719,12.846281738281249,232.46736641221372,-131.67873664122138,-128.5920496183206,0
23663,-0.2382809448242189,4.26858046875,11.673122924804687,193.13148854961833,-141.2054541984733,-140.24853816793893,0
23688,0.6260258544921871,5.056272814941406,10.892613183593749,157.52080152671755,-135.00698091603053,-152.97372900763358,0
23713,0.8462924072265623,7.62046279296875,7.990840771484374,154.09332061068702,-197.66346946564886,-168.20273664122138,0
23738,1.6938397949218746,7.998746655273437,7.811275646972655,122.90248091603053,-227.5031641221374,-175.26380534351145,0
23763,4.552516577148437,7.974804638671874,7.758603210449218,72.00935114503817,-193.373393129771,-165.07296564885496,0
23789,4.823061364746093,8.362665307617187,7.124139770507812,49.91011450381679,-229.51843129770992,-148.59968320610687,0
23814,4.332250024414062,9.384989416503904,6.855989184570312,39.085687022900764,-248.71690458015266,-136.07296564885496,0
23839,1.6579267700195306,10.512658398437498,5.45298701171875,45.31469465648855,-248.71690458015266,-121.99662977099236,0
23864,1.4352660156249994,9.447238659667967,3.645364758300781,7.497900763358778,-248.71690458015266,-107.27143893129771,0
23889,2.246900378417968,9.98114562988281,4.184060131835937,-20.29599236641221,-248.71690458015266,-98.66075190839695,0
23914,1.4855442504882808,10.809539404296874,3.070756359863281,-44.173854961832056,-248.71690458015266,-95.00426335877863,0
23939,1.5430050903320307,11.566107128906248,3.4250982055664063,-74.18912213740458,-248.71690458015266,-92.27143893129771,0
23964,0.6858808959960934,10.86939444580078,2.6421942626953125,-96.42576335877864,-248.71690458015266,-82.09586641221374,0
23990,1.3921703857421868,10.637156884765623,3.15455341796875,-139.27309160305344,-248.71690458015266,-73.20273664122136,0
24015,0.7265823242187497,10.742501757812498,1.9287221679687498,-182.53263358778628,-222.81614122137404,-64.72182061068702,0
24040,1.191057446289062,10.589272851562498,4.4258744995117185,-183.3417938931298,-248.71690458015266,-51.27143893129771,0
24065,2.5246277709960934,10.232536804199217,3.19286064453125,-192.21965648854962,-235.51843129770992,-25.370675572519083,0
24090,4.214934143066405,10.565330834960935,3.128217199707031,-180.17385496183206,-248.71690458015266,4.079706106870229,0
24115,3.7265170043945304,10.23732520751953,2.711626110839844,-166.74637404580153,-239.02224809160305,38.86596564885497,0
24140,3.1614854125976555,10.512658398437498,2.35010166015625,-158.79980916030536,-215.7474389312977,79.11787404580153,0
24165,3.3506273437499994,11.853411328124999,2.5153015747070313,-170.1280534351145,-166.23598854961833,115.88123282442749,0
24190,4.504632543945312,12.442384936523435,3.027660729980469,-179.32652671755727,-139.9764465648855,145.15604198473284,0
24215,4.066493640136718,11.410484020996092,3.1784954345703125,-190.8074427480916,-115.91537786259542,170.4079503816794,0
24240,3.561317089843749,10.79277999267578,2.630223254394531,-220.66240458015267,-63.80087404580153,195.9194007633588,0
24265,5.344997326660156,10.493504785156249,2.9749882934570313,-243.78454198473284,-28.70163740458015,213.75909541984734,0
24290,5.263594470214843,8.566172448730468,3.563961901855469,-249.66240458015267,5.786912213740457,220.7285610687023,0
24315,7.166984790039062,7.19908330078125,3.0611795532226562,-240.89141221374047,18.870881679389313,222.7132938931298,0
24340,6.7264516845703115,5.741014489746093,2.2782756103515625,-225.45629770992366,23.909049618320612,220.04153816793894,0
24366,5.268382873535155,3.741856103515625,2.704443505859375,-238.25782442748093,83.5350038167939,222.77436259541986,0
24391,5.146278588867187,2.8847319091796875,2.56079140625,-228.21202290076337,67.82508015267176,222.0110038167939,0
24416,5.663426147460936,0.6365765502929687,2.687684094238281,-215.53263358778628,70.42813358778626,213.3316145038168,0
24441,4.226905151367187,-1.7025584716796873,2.3333422485351565,-199.41812977099238,71.88614885496183,210.30871374045802,0
24466,3.659479357910156,-2.8086796386718746,1.902385949707031,-169.8990458015267,20.374698473282443,215.8201641221374,0
24491,3.6475083496093745,-2.3777233398437496,1.9382989746093748,-116.41812977099237,-78.68637022900764,227.07207251908397,0
24516,3.8031314575195303,-4.036905090332031,1.2056732666015624,-77.61660305343511,-120.80850763358778,235.75909541984734,0
24541,2.419282897949218,-4.455890380859374,-0.03691739501953125,-24.21202290076336,-185.9764465648855,251.02627099236642,0
24566,1.3394979492187495,-5.190910290527343,-0.25478974609375,-22.257824427480916,-92.19782061068702,251.02627099236642,0
24591,0.317173840332031,-5.198092895507812,0.19771436767578124,6.169656488549618,-76.19782061068702,251.02627099236642,0
24616,0.1615507324218748,-5.873257763671875,-0.14226226806640624,34.955916030534354,-99.34285877862595,242.50718702290078,0
24641,-0.36277943115234423,-4.867693066406249,0.5281141967773437,77.20019083969466,-120.93064503816794,248.60642366412213,0
