t_ms,ax,ay,az,gx,gy,gz,label
0,6.551674963378905,4.845583068847656,2.180113342285156,2.1696564885496183,0.5426374045801527,-4.332507633587786,0
25,6.228457739257812,4.970081555175781,2.321371240234375,-0.01354961832061069,2.0311870229007636,-2.9279274809160305,0
50,6.470272106933593,4.716296179199219,2.251939392089844,-2.624236641221374,8.008286259541984,-2.668385496183206,0
75,6.439147485351561,4.852765673828125,2.299823425292969,-2.502099236641221,2.0693549618320612,-3.523347328244275,0
100,6.3002837890625,4.5367310546874995,2.1250467041015626,-1.3646946564885498,-8.144385496183206,-4.43937786259542,0
125,6.12071866455078,4.261397863769531,2.0125192260742186,-1.6013358778625952,-5.3428587786259545,-5.7523549618320615,0
150,6.034527404785156,4.278157275390625,2.041249645996094,-0.9143129770992368,1.2296603053435116,-6.485179389312978,0
175,6.020162194824217,4.531942651367188,2.069980065917969,1.6811068702290077,4.603706106870229,-7.836324427480916,0
200,6.31225479736328,4.2733688720703125,1.9167511596679685,5.497900763358778,3.7792786259541984,-9.859225190839695,0
225,6.209304125976561,4.5917976928710935,2.0173076293945313,8.910114503816793,1.4357671755725192,-11.11876717557252,0
250,6.317043200683593,4.6660179443359375,1.9981540161132811,9.329961832061068,2.92431679389313,-12.095866412213741,0
275,6.360138830566405,4.8360062622070314,2.0580090576171877,10.368129770992367,-1.129118320610687,-14.363041984732824,0
300,6.393657653808593,4.814458447265625,1.8497135131835936,11.28416030534351,-6.884843511450381,-16.882125954198475,0
325,5.905240515136717,4.677988952636719,2.0556148559570313,11.162022900763358,-5.3504923664122135,-21.09586641221374,0
350,5.175009008789062,4.3068876953125,2.2256031738281252,4.948282442748091,22.473935114503817,-31.813423664122137,0
375,5.366545141601562,4.1225341674804685,2.3668610717773437,-1.1509541984732823,42.71820992366412,-50.668385496183205,0
401,6.051286816406249,4.6492585327148435,1.8856265380859374,-2.578435114503817,46.15332442748091,-72.62258396946565,0
426,6.6689908447265625,5.824811547851563,2.625434851074219,4.96354961832061,27.351797709923666,-88.63785114503817,0
451,7.095158740234374,6.85431826171875,2.9701998901367186,12.169656488549618,13.290729007633589,-87.88212595419847,0
476,7.58357587890625,8.178311779785155,3.3963677856445313,19.31469465648855,-15.823774809160305,-70.52334732824427,0
501,8.071993017578123,8.678699926757812,3.2263794677734374,13.078053435114503,-16.777973282442748,-41.83632442748091,0
526,8.39999864501953,9.41371983642578,3.0132955200195313,1.2688931297709924,-4.487896946564886,-5.401209923664123,0
551,9.190085192871091,9.358653198242186,2.92471005859375,-9.998282442748092,-4.846675572519084,39.28581297709924,0
576,9.41514014892578,8.87741866455078,2.56079140625,-16.044083969465646,-15.434461832061068,90.08733969465649,0
601,9.053615698242186,9.602861767578124,2.5057247680664063,-19.044083969465646,-33.327591603053435,142.64459160305344,0
626,8.067204614257811,9.327528576660155,2.8241535888671874,-38.731106870229006,11.977751908396947,194.2552786259542,0
651,8.797436120605468,8.032265478515624,3.128217199707031,-54.227290076335876,33.55027099236641,236.8583320610687,0
676,8.775888305664061,7.076979016113281,3.195254846191406,-62.75400763358778,22.283095419847328,251.02627099236642,0
701,8.151001672363279,6.061837512207031,3.7147966064453124,-65.05935114503818,-18.999347328244273,251.02627099236642,0
726,6.7623647094726556,5.429768273925781,3.592692321777344,-84.54026717557252,-22.182553435114503,251.02627099236642,0
751,5.687368164062499,4.321252905273438,3.554385095214844,-107.9219465648855,-11.9001106870229,251.02627099236642,0
776,4.521391955566406,2.796146447753906,3.540019885253906,-131.47919847328245,4.054087786259542,251.02627099236642,0
801,4.157473303222655,1.3907500732421874,3.5112894653320312,-145.19675572519085,8.138057251908396,251.02627099236642,0
827,3.4440012084960934,-0.57728369140625,2.587127624511719,-150.83797709923664,-2.1672862595419846,251.02627099236642,0
852,2.4887147460937493,-0.32828671875000004,2.5823392211914062,-168.6166030534351,41.52737022900763,251.02627099236642,0
877,0.9492430786132808,-4.3218150878906245,1.145818225097656,-155.96774809160306,-21.144385496183205,251.02627099236642,0
902,-0.13533027343750037,-3.1223200561523434,0.7028909179687499,-154.7387404580153,-25.92301145038168,251.02627099236642,0
927,-1.339613708496094,-4.029722485351562,-0.4726620971679687,-126.04408396946566,-104.5795,251.02627099236642,0
952,-2.6276942016601565,-5.621866589355468,-0.9203778076171875,-79.55553435114504,-184.91537786259542,251.02627099236642,0
977,-4.887820568847657,-6.596306665039062,-1.5428702392578124,-63.051717557251905,-140.6558358778626,251.02627099236642,0
1002,-5.297229052734375,-7.096694812011718,-1.9450961181640625,-51.64713740458015,-104.61003435114503,251.02627099236642,0
1027,-8.835859106445312,-4.130278955078125,-3.4438663574218746,-47.27309160305343,-82.25125572519083,251.02627099236642,0
1052,-8.23730869140625,-5.969025830078125,-2.5723769531249996,-33.27309160305343,-63.15965267175573,251.02627099236642,0
1077,-10.669817578124999,-6.069582299804687,-2.6585682128906245,-32.89904580152672,-27.022248091603053,218.7132938931298,0
1102,-11.380895471191405,-6.3113966674804685,-2.067200402832031,-27.66240458015267,-4.167286259541985,169.94993511450383,0
1127,-12.242808068847655,-6.4957501953125,-2.2970437622070308,2.8414122137404583,-56.9001106870229,100.73619465648855,0
1152,-12.671370166015624,-7.405546826171874,-1.7679251953125,15.49026717557252,-33.442095419847334,10.476652671755724,0
1180,-13.095143859863281,-7.944242199707031,-1.6075136840820312,40.948282442748095,-47.70927099236641,-99.17983587786259,0
1205,-12.30505731201172,-8.042404467773437,-1.5452644409179688,57.16202290076336,-67.71690458015267,-195.8744923664122,0
1230,-10.545319091796875,-7.8891755615234365,0.5736040283203124,53.139122137404584,-78.98408015267175,-249.24090458015266,0
1255,-9.094432885742187,-7.393575817871093,0.6047286499023437,37.200190839694656,-52.16728625954199,-249.24090458015266,0
1280,-5.627628881835937,-7.163732458496093,1.1386356201171874,28.02461832061069,-72.2207213740458,-249.24090458015266,0
1305,-3.999571752929688,-6.974590527343749,0.6430358764648437,11.055152671755724,-74.01461450381679,-249.24090458015266,0
1330,-1.9453467285156252,-7.302596154785156,1.6270527587890624,-1.7540076335877863,-89.71690458015267,-249.24090458015266,0
1356,-0.8248603515625004,-6.716016748046874,0.884850244140625,-18.120419847328243,-76.70927099236641,-249.24090458015266,0
1381,-0.33883741455078153,-4.372093322753906,-0.283520166015625,-40.03645038167939,-48.67110305343512,-249.24090458015266,0
1406,2.1607091186523437,-3.840580554199218,-0.01776378173828125,-53.08225190839695,-34.62530152671756,-249.24090458015266,0
1431,3.767218432617187,-5.995362048339843,0.9327342773437499,-46.051717557251905,-66.76270610687023,-249.24090458015266,0
1456,3.2141578491210936,-2.794314428710937,-0.9371372192382812,-82.18148854961832,35.91668320610687,-249.24090458015266,0
1481,4.727293298339843,3.399485266113281,-0.436749072265625,-83.99828244274809,52.52737022900763,-249.24090458015266,0
1506,7.128677563476562,2.264633679199219,-1.5356876342773438,-61.90667938931298,-6.648202290076336,-249.24090458015266,0
1531,8.75673469238281,0.7706518432617186,-1.6027252807617187,-46.1662213740458,-85.63293511450381,-249.24090458015266,0
1556,7.755958398437499,4.395473156738281,-0.9874154541015625,-71.86087786259543,-53.381026717557255,-249.24090458015266,0
1581,7.049668908691406,4.050708117675781,-1.5045630126953125,-86.01354961832061,-4.037515267175573,-245.3325076335878,0
1606,9.362467712402342,4.261397863769531,-1.7798962036132813,-92.29599236641222,75.6113396946565,-238.64548473282443,0
1631,6.494214123535156,6.040289697265625,-1.3393630981445312,-41.097519083969466,-14.396293893129771,-238.73708778625954,0
1656,6.23564034423828,6.590956079101562,-1.9953743530273436,-17.67767175572519,-56.44972900763359,-237.04243129770992,0
1681,5.945941943359375,8.343511694335936,-2.5029451049804683,-24.570801526717556,-1.4955305343511451,-233.67601908396946,0
1706,7.0257268920898435,10.53660041503906,-2.5220987182617183,-21.540267175572517,21.405232824427483,-222.95846183206106,0
1731,7.547662854003906,12.514210986328123,-2.172545275878906,-11.082251908396946,16.993019083969465,-195.2943396946565,0
1756,8.92432880859375,13.708917614746092,-2.811797119140625,-9.502099236641222,26.031187022900763,-139.50808015267177,0
1782,10.473377282714843,13.790320471191405,-3.369646105957031,-0.21202290076335883,15.512103053435116,-50.84395801526717,0
1807,11.194031982421873,14.388870886230468,-3.2978200561523434,5.658206106870229,6.481568702290076,55.41558396946565,0
1832,10.150160058593748,12.679410900878905,-3.0464288818359373,12.383396946564885,11.59607251908397,154.690393129771,0
1857,8.823772338867187,11.815104101562499,-2.1414206542968746,16.32996183206107,32.176225190839695,228.3850496183206,0
1882,8.060022009277343,11.068113183593749,-1.3776703247070312,9.7956106870229,49.428133587786256,251.02627099236642,0
1907,8.562804357910156,9.339499584960937,-0.800667724609375,-3.8837786259541986,50.22966030534351,251.02627099236642,0
1932,8.191703100585936,10.383371508789061,-0.20929991455078123,-23.250190839694657,29.847980916030536,251.02627099236642,0
1957,7.123889160156248,9.028253369140623,0.5831808349609374,-50.02118320610687,45.22966030534351,251.02627099236642,0
1982,6.6522314331054675,6.009165075683594,1.126664611816406,-54.21965648854962,20.565538167938932,251.02627099236642,0
2007,5.711310180664062,2.872760900878906,0.6693720947265624,-58.83034351145038,23.42813358778626,251.02627099236642,0
2032,5.033751110839843,2.317306115722656,0.7531691528320312,-69.50973282442749,21.321263358778626,251.02627099236642,0
2057,3.5708938964843746,-0.5413706665039062,0.4012215087890625,-67.48683206106871,9.550270992366412,251.02627099236642,0
2082,1.8159440795898432,-2.727276782226562,-0.38407663574218753,-127.45629770992367,144.4434007633588,251.02627099236642,0
2107,1.9715671874999998,-2.782343420410156,-0.168598486328125,-153.2959923664122,105.76401145038169,251.02627099236642,0
2132,-0.17124329833984397,-4.254777441406249,-1.0927603271484374,-128.9982824427481,-29.335225190839694,251.02627099236642,0
2157,-2.4002450439453127,-4.364910717773437,-1.6075136840820312,-101.25782442748093,-100.61766793893129,251.02627099236642,0
2183,-4.710649645996094,-4.913182897949218,-2.222823510742187,-47.227290076335876,-189.42682824427482,251.02627099236642,0
2208,-5.225403002929688,-4.788684411621094,-2.0600177978515624,-4.257824427480917,-197.0146145038168,251.02627099236642,0
2233,-6.056190979003906,-6.208445996093749,-1.5428702392578124,1.1467557251908396,-109.27415648854961,251.02627099236642,0
2258,-6.980352819824219,-6.828544226074218,-2.251553930664062,-22.525,-1.1138511450381676,251.02627099236642,0
2283,-9.376948681640624,-4.671368530273437,-2.1462090576171873,-12.85324427480916,-18.5795,251.02627099236642,0
2308,-10.384907580566406,-4.403217944335937,-2.462243676757812,-5.86087786259542,-13.480263358778625,243.09497328244274,0
2333,-11.158234716796876,-4.870087268066405,-1.4878036010742186,-13.37232824427481,34.481568702290076,200.102606870229,0
2358,-12.144645800781248,-5.183727685546875,-2.651385607910156,-2.960114503816794,37.130423664122134,139.23237786259543,0
2383,-13.65778125,-5.102324829101562,-3.130225939941406,11.871946564885496,22.73347709923664,56.23237786259542,0
2408,-13.91874923095703,-6.076764904785156,-2.986573840332031,35.23835877862596,-0.8695763358778623,-40.55388167938931,0
2433,-13.779885534667969,-5.921141796874999,-2.8692579589843747,58.74217557251909,-20.029881679389312,-136.71418702290077,0
2458,-11.967474877929686,-5.7296056640624995,-1.952278723144531,75.85667938931297,-44.41919465648855,-220.05769847328244,0
2483,-10.119151196289062,-6.060005493164062,-1.17416318359375,84.13912213740457,-67.39629389312977,-249.24090458015266,0
2508,-9.496658764648437,-6.203657592773437,-1.0017806640625,82.9635496183206,-89.4268282442748,-249.24090458015266,0
2533,-6.489541479492187,-6.478990783691406,-0.42477806396484374,67.42156488549618,-87.95354580152672,-249.24090458015266,0
2558,-4.6076989746093755,-6.026486669921875,1.107510998535156,52.00935114503817,-80.9382786259542,-249.24090458015266,0
2583,-3.2980706665039063,-6.615460278320312,0.367702685546875,37.10858778625954,-68.48026335877863,-249.24090458015266,0
2609,-0.44418228759765643,-5.4997623046875,0.386856298828125,22.238358778625955,-54.79324045801527,-249.24090458015266,0
2634,1.8518571044921872,-5.324985583496093,0.9494936889648437,22.757442748091606,-96.05278244274808,-249.24090458015266,0
2659,1.8231266845703118,-4.29308466796875,0.44431713867187494,3.6200381679389313,-88.39629389312977,-249.24090458015266,0
2684,2.172680126953124,-3.9626848388671867,-1.8182034301757812,-33.15095419847328,-31.51843129770992,-249.24090458015266,0
2709,4.9451656494140614,0.6317881469726562,-0.733630078125,-57.00591603053435,31.725843511450382,-249.24090458015266,0
2734,5.716098583984375,0.8329010864257812,-0.5468823486328125,-61.418129770992365,57.58080534351145,-249.24090458015266,0
2759,4.7368701049804685,2.010848303222656,0.06603327636718749,-49.983015267175574,94.48920229007634,-249.24090458015266,0
2784,6.977842858886718,4.354771728515625,0.6214880615234374,-15.341793893129772,55.7792786259542,-249.24090458015266,0
2809,7.087976135253906,5.513565332031249,0.3533374755859374,-5.273091603053436,75.8174465648855,-249.24090458015266,0
2834,8.198885705566404,6.385054736328125,0.9279458740234374,22.871946564885498,47.565538167938925,-249.24090458015266,0
2859,8.905175195312498,8.700247741699217,1.7108498168945312,63.28416030534351,-56.327591603053435,-249.24090458015266,0
2884,8.230010327148438,9.131204040527342,0.8656966308593749,38.80324427480916,-50.2970572519084,-249.24090458015266,0
2909,9.520485021972654,8.664334716796875,0.6286706665039061,17.917748091603055,-34.71690458015267,-211.97372900763358,0
2934,10.408733837890622,9.097685217285155,-0.4223838623046875,10.062786259541985,-32.319958015267176,-175.98136259541985,0
2959,9.66413712158203,9.667505212402343,0.11870571289062498,18.5131679389313,-69.44209541984732,-145.5004465648855,0
2984,7.863697473144531,9.54779512939453,-0.12789705810546875,17.17729007633588,-61.63293511450382,-112.35540839694656,0
3010,8.026503186035157,10.311545458984373,-0.6833518432617187,1.757442748091603,12.344164122137405,-72.3859427480916,0
3035,9.544427038574216,11.724124438476561,-1.21247041015625,-11.899045801526718,24.794545801526716,-23.401209923664123,0
3060,10.652942407226561,12.454355944824217,-0.9323488159179687,-16.189122137404578,-3.91537786259542,39.41558396946565,0
3085,9.92510510253906,12.10240830078125,-1.3345746948242188,-6.143320610687023,-46.6176679389313,112.98046946564885,0
3110,8.790253515625,11.388936206054685,-1.4279485595703125,2.375763358778626,-25.464996183206107,176.24001145038167,0
3135,9.611464685058593,10.936432092285155,-0.7719373046875,1.0246183206106871,-9.23598854961832,230.05680534351146,0
3160,9.058404101562498,10.694617724609374,-0.5277287353515625,-7.845610687022901,-15.190187022900762,251.02627099236642,0
3185,6.925170422363281,10.457591760253905,0.49938377685546864,-21.769274809160304,-20.190187022900762,251.02627099236642,0
3210,6.077623034667968,8.281262451171873,0.5329026000976562,-51.418129770992365,30.75637786259542,251.02627099236642,0
3235,5.790318835449217,6.121692553710937,1.1434240234375,-77.21202290076336,60.252561068702285,251.02627099236642,0
3260,5.349785729980468,4.515183239746094,1.0356849487304687,-95.2807251908397,52.565538167938925,251.02627099236642,0
3285,4.74884111328125,4.266186267089844,0.32939545898437494,-117.02881679389314,56.54263740458015,251.02627099236642,0
3310,2.907700036621093,0.7945938598632811,0.291088232421875,-106.02118320610687,-3.892477099236641,251.02627099236642,0
3335,1.9907208007812498,-0.11520277099609375,-0.0776188232421875,-108.53263358778626,16.24492748091603,251.02627099236642,0
3360,2.064941052246093,-2.983456359863281,-0.6306794067382813,-119.14332061068703,36.305996183206105,251.02627099236642,0
3385,0.14957972412109344,-4.125490551757812,-1.3633051147460937,-129.97538167938933,20.786912213740457,251.02627099236642,0
3411,-0.621353210449219,-3.902829797363281,-1.5404760375976563,-78.61660305343511,-140.4649961832061,251.02627099236642,0
3436,-2.0506916015625003,-5.676933227539062,-0.800667724609375,-12.280725190839695,-242.51843129770992,251.02627099236642,0
3461,-3.79367041015625,-6.366463305664062,-2.8620753540039057,-18.189122137404578,-131.0909503816794,251.02627099236642,0
3486,-5.692272326660156,-5.906776586914062,-3.190080981445312,-2.173854961832061,-132.31995801526716,251.02627099236642,0
3511,-5.234979809570312,-7.029657165527343,-2.6370203979492186,-6.883778625954199,-62.86957633587786,251.02627099236642,0
3536,-6.879796350097656,-7.446248254394531,-1.6266672973632812,-17.50973282442748,7.046454198473283,251.02627099236642,0
3561,-7.827900207519531,-6.562787841796874,-2.8189797241210934,-13.441030534351146,5.000652671755725,251.02627099236642,0
3586,-10.430397412109375,-4.963461132812499,-3.3552808959960934,-2.69293893129771,-21.159652671755726,238.90413358778628,0
3611,-11.708901098632811,-5.207669702148437,-2.1773336791992186,2.30706106870229,-18.526064885496183,199.33924809160305,0
3636,-12.82699327392578,-5.743970874023437,-1.5428702392578124,20.558969465648858,-13.121484732824428,144.73619465648855,0
3661,-14.191688220214843,-5.2603421386718745,-2.2970437622070308,31.154389312977102,-7.556599236641221,77.70566030534351,0
3686,-13.971421667480467,-5.152603063964843,-1.7176469604492186,35.452099236641224,-59.96881297709924,-8.492812977099238,0
3711,-13.827769567871094,-4.738406176757812,-1.4159775512695312,48.29942748091603,-51.0527824427481,-86.31724045801526,0
3736,-13.348929235839844,-6.22041700439453,0.30545344238281247,45.704007633587786,-41.47262977099237,-164.6302175572519,0
3762,-11.079226062011717,-6.639402294921874,1.7180324218749998,34.72690839694657,-29.152019083969464,-227.2867061068702,0
3787,-10.155064221191406,-6.203657592773437,1.1386356201171874,12.902480916030534,-17.800874045801525,-249.24090458015266,0
3812,-9.522994982910156,-6.127043139648437,0.16658974609375,-6.013549618320611,-35.59476717557252,-249.24090458015266,0
3837,-8.799946081542968,-6.28506044921875,-0.17578109130859373,-29.845610687022898,-9.808507633587785,-249.24090458015266,0
3862,-5.883808459472656,-6.823755822753905,-0.19014630126953125,-37.67767175572519,25.878515267175572,-249.24090458015266,0
3887,-3.9421109130859375,-6.802208007812499,-0.7647546997070312,-21.303625954198473,16.42813358778626,-249.24090458015266,0
3912,-2.4529174804687504,-5.851709948730468,-1.0089632690429686,-5.921946564885497,-9.449729007633588,-249.24090458015266,0
3937,-1.1744137939453128,-5.712846252441405,-0.9443198242187499,3.9559160305343513,-26.5413320610687,-249.24090458015266,0
3962,0.47040274658203085,-4.831780041503905,-1.3106326782226563,5.520801526717557,-31.69400381679389,-249.24090458015266,0
3987,1.8662223144531245,-3.455114086914062,-1.2819022583007813,1.5666030534351143,-29.816141221374046,-249.24090458015266,0
4012,3.8869285156249997,-3.194146105957031,-1.2579602416992186,6.505534351145037,-72.64056870229007,-249.24090458015266,0
4037,3.681027172851562,-4.142249963378906,-2.0264989746093747,-21.891412213740455,-39.98408015267176,-249.24090458015266,0
4062,3.506250451660156,3.1026042602539063,-1.451890576171875,-69.05171755725192,156.87851526717557,-249.24090458015266,0
4087,6.831796557617186,6.725031372070312,-2.0815656127929683,-32.8456106870229,102.71820992366412,-249.24090458015266,0
4112,8.876444775390624,3.3348418212890625,-0.7863025146484375,4.894847328244275,15.42813358778626,-249.24090458015266,0
4137,8.670543432617187,5.939733227539063,-1.3489399047851562,26.29179389312977,-109.64056870229007,-249.24090458015266,0
4163,7.1214949584960925,7.960439428710937,-0.015369580078125,-11.662404580152671,-76.64820229007633,-249.24090458015266,0
4188,7.372886132812499,6.942903723144531,0.3557316772460938,-43.83034351145038,20.718209923664123,-248.30197328244273,0
4213,8.37366242675781,8.793621606445312,-2.1174786376953123,-38.46393129770992,9.649507633587787,-224.2332709923664,0
4238,7.69849755859375,8.93487950439453,-1.5644180541992188,-26.128053435114502,-37.205454198473284,-212.0653320610687,0
4263,7.1214949584960925,9.262885131835937,-1.4949862060546875,-26.540267175572517,-20.41156106870229,-199.57678244274808,0
4288,7.995378564453124,10.62039747314453,-2.0624119995117183,-24.570801526717556,6.183858778625954,-168.37830916030535,0
4313,8.778282507324217,11.532588305664062,-2.6154725830078123,-2.6013358778625952,-23.029881679389312,-121.91266030534351,0
4338,8.960241833496092,12.121561914062498,-2.957843420410156,20.055152671755728,-25.319958015267176,-63.97372900763358,0
4363,8.699273852539061,13.163039636230467,-3.498932995605468,23.971183206106872,3.1304236641221372,3.537721374045802,0
4388,9.6330125,13.35936417236328,-3.7862371948242184,31.85667938931298,15.244927480916031,72.45375190839695,0
4413,9.537244433593749,12.712929724121093,-3.3002142578124998,48.33759541984733,-10.55659923664122,138.24764503816795,0
4438,8.364085620117187,11.690605615234373,-2.6849044311523436,56.68110687022901,5.557904580152671,192.30108015267177,0
4463,7.638642517089843,10.922066882324218,-2.182122082519531,45.74980916030535,45.63424045801526,237.3316145038168,0
4488,8.483795703125,9.729754455566406,-1.777502001953125,19.63530534351145,83.93958396946566,251.02627099236642,0
4513,8.644207214355468,9.50948790283203,-1.4973804077148436,0.7803435114503816,54.40523282442748,251.02627099236642,0
4538,7.681738146972655,9.076137402343749,-0.26197235107421873,-17.906679389312977,31.92431679389313,251.02627099236642,0
4564,6.0488926147460935,7.201477502441406,0.3724910888671875,-29.51736641221374,35.611339694656486,251.02627099236642,0
4589,4.523786157226562,4.050708117675781,0.17856075439453123,-39.69293893129771,45.794545801526716,251.02627099236642,0
4614,4.619554223632812,2.0539439331054687,0.386856298828125,-72.94484732824428,90.4586679389313,251.02627099236642,0
4639,4.183809521484374,1.1417531005859374,0.137859326171875,-84.92958015267176,62.83271374045801,251.02627099236642,0
4664,2.210987353515624,-0.5437648681640626,-0.29549117431640626,-83.73110687022901,18.878515267175572,251.02627099236642,0
4689,2.3953408813476553,-1.2093529296874999,-0.6594098266601562,-79.69293893129772,-14.045148854961832,251.02627099236642,0
4714,-0.08026363525390678,-4.551658447265624,-0.666592431640625,-82.38759541984733,12.75637786259542,251.02627099236642,0
4739,0.21422316894531201,-4.309844079589843,-1.8373570434570312,-99.2043893129771,29.94721755725191,251.02627099236642,0
4764,-1.6149468994140628,-4.38167012939453,-1.9139714965820311,-40.89904580152672,-150.32759160305343,251.02627099236642,0
4789,-4.090551416015625,-4.534899035644531,-2.0073453613281247,2.589503816793893,-190.61003435114503,251.02627099236642,0
4814,-4.641217797851563,-5.2411885253906245,-1.6697629272460937,24.20782442748092,-152.52606488549617,251.02627099236642,0
4839,-6.630799377441406,-5.899593981933593,-1.969038134765625,18.940648854961832,-61.36575954198474,251.02627099236642,0
4864,-7.7800161743164065,-5.590741967773437,-2.4933682983398433,9.711641221374045,-21.800874045801525,251.02627099236642,0
4889,-10.202948254394531,-5.198092895507812,-1.67215712890625,-3.7845419847328245,16.672408396946565,251.02627099236642,0
4914,-10.360965563964843,-5.368081213378906,-1.4159775512695312,-23.98301526717557,63.756377862595414,251.02627099236642,0
4940,-11.797486560058594,-5.545252136230468,-2.0695946044921874,-20.265458015267175,53.618973282442745,224.3316145038168,0
4965,-13.791856542968748,-4.3601223144531245,-3.427106945800781,-8.418129770992367,36.305996183206105,160.40031679389313,0
4990,-22.238599999999998,-6.395193725585937,-3.4702025756835932,23.16202290076336,-106.80850763358778,-117.4241106870229,0
5015,-10.751220434570314,-4.391246936035156,0.6717662963867187,18.772709923664124,-45.327591603053435,-129.11113358778627,0
5040,-10.492646655273436,-5.607501379394531,0.7771111694335937,21.933015267175573,-11.808507633587785,-171.25617175572518,0
5065,-10.523771276855468,-5.540463732910156,0.4826243652343749,11.482633587786259,-11.40392748091603,-198.309606870229,0
5090,-11.021765222167968,-6.050428686523437,-1.023328479003906,-1.5479007633587787,-10.541332061068701,-221.92792748091603,0
5115,-9.76959775390625,-6.122254736328125,-1.2819022583007813,-8.273091603053436,-17.144385496183205,-243.1264007633588,0
5140,-7.504682983398437,-7.257106323242187,-0.7839083129882812,-15.066984732824428,7.8708816793893135,-249.24090458015266,0
5165,-5.919721484375,-7.2235875,-1.1765573852539062,-1.9143129770992364,2.8937824427480914,-249.24090458015266,0
5190,-5.3977855224609375,-6.565182043457031,-1.7942614135742188,6.001717557251908,1.2907290076335878,-249.24090458015266,0
5215,-2.776134704589844,-6.727987756347655,-1.2842964599609374,14.230725190839694,-4.9001106870229005,-249.24090458015266,0
5240,-0.5255851440429691,-7.446248254394531,-0.781514111328125,30.581870229007635,-41.755072519083974,-249.24090458015266,0
5266,0.6571504760742184,-6.203657592773437,-0.9227720092773437,30.307061068702293,-70.72453816793893,-249.24090458015266,0
5291,1.341892150878906,-4.67615693359375,-1.1789515869140625,21.039885496183206,-73.1443854961832,-249.24090458015266,0
5316,2.495897351074218,-4.309844079589843,-0.398441845703125,4.97118320610687,-64.64820229007633,-249.24090458015266,0
5341,3.0058623046874997,-5.418359448242187,-1.9091830932617186,-37.1280534351145,52.53500381679389,-249.24090458015266,0
5366,4.186203723144531,-0.855011083984375,-1.7032817504882811,-38.280725190839696,108.74111068702291,-249.24090458015266,0
5391,5.740040600585936,3.5048301391601564,-1.3154210815429688,-13.967748091603054,89.79454580152672,-249.24090458015266,0
5416,8.347326208496092,2.324488720703125,-1.0736067138671874,12.80324427480916,15.741110687022902,-249.24090458015266,0
5441,8.807012927246092,2.439410400390625,-0.56124755859375,26.650572519083973,-76.3352251908397,-249.24090458015266,0
5466,8.220433520507811,4.247032653808594,-0.3625288208007812,-4.761641221374046,-50.884843511450384,-249.24090458015266,0
5491,8.823772338867187,5.7625623046875,-0.4223838623046875,-16.952480916030535,-92.68637022900764,-244.26380534351145,0
5516,8.043262597656248,4.891072900390625,-1.317815283203125,-40.45629770992366,-62.556599236641226,-228.39357633587787,0
5541,7.57639327392578,5.93494482421875,-2.251553930664062,-76.34179389312978,67.84798091603054,-227.73708778625954,0
5566,8.581957971191404,7.151199267578125,-1.952278723144531,-71.89904580152673,87.19149236641222,-231.85159160305344,0
5591,7.676949743652343,10.546177221679686,-1.5716006591796874,-49.563167938931294,42.40523282442748,-225.67601908396946,0
5616,8.490978308105468,9.952415209960936,-2.1079018310546873,-29.196755725190837,-14.068049618320611,-201.77525572519085,0
5641,8.876444775390624,9.035435974121093,-1.7128585571289061,-17.395229007633585,-4.869576335877863,-165.40884351145039,0
5667,8.028897387695313,10.69701192626953,-1.6075136840820312,-13.082251908396946,72.37469847328245,-104.49281297709923,0
5692,10.274658544921873,12.119167712402342,-1.5404760375976563,-7.4028625954198475,90.5350038167939,-21.462278625954198,0
5717,11.622594079589842,12.79672678222656,-1.432736962890625,8.558969465648854,20.61133969465649,65.96520229007633,0
5742,10.549991735839843,11.168669653320311,-0.9491082275390624,11.413931297709924,-0.35812595419847315,148.75146183206107,0
5767,10.051997790527341,10.809539404296874,-0.3721056274414062,-2.9830152671755723,31.473935114503817,220.9728358778626,0
5792,10.312965771484375,10.764049572753905,0.31024184570312496,-29.68530534351145,52.71820992366412,251.02627099236642,0
5817,9.482177795410156,10.622791674804686,0.7076793212890624,-32.50209923664122,-2.5413320610687022,251.02627099236642,0
5842,7.320213696289062,9.63638059082031,1.3780557861328124,-44.18148854961832,3.92431679389313,251.02627099236642,0
5867,6.508579333496093,7.661164221191406,1.5336788940429686,-57.112786259541984,28.863248091603054,251.02627099236642,0
5892,6.472666308593749,4.838400463867187,1.5025542724609373,-77.0364503816794,54.54263740458015,251.02627099236642,0
5917,5.1295191772460935,3.9645168579101564,1.7012730102539062,-89.92958015267176,36.58080534351145,251.02627099236642,0
5942,3.937206750488281,1.5080659545898436,0.39643310546875,-73.90667938931298,-31.94591221374046,251.02627099236642,0
5967,2.0002976074218743,-0.9651443603515624,0.41558671875,-90.27309160305344,32.65714122137405,251.02627099236642,0
5992,2.495897351074218,-2.8517752685546873,-0.2500013427734375,-118.61660305343511,72.5350038167939,251.02627099236642,0
6017,2.043393237304687,-3.917195007324218,-0.5277287353515625,-104.01354961832061,-12.938278625954197,251.02627099236642,0
6042,-0.6381126220703128,-4.242806433105469,-0.0967724365234375,-88.40286259541985,-62.35812595419848,251.02627099236642,0
6067,-0.822466149902344,-4.783896008300781,-0.091984033203125,-25.547900763358776,-191.8085076335878,251.02627099236642,0
6093,-2.9556998291015626,-6.919523889160156,-1.6027252807617187,-8.074618320610687,-158.9535458015267,251.02627099236642,0
6119,-4.341942590332032,-6.4813849853515615,-1.0376936889648436,14.14675572519084,-166.0146145038168,251.02627099236642,0
6144,-5.788040393066407,-6.775871789550781,-1.1669805786132812,14.14675572519084,-97.70163740458015,251.02627099236642,0
6169,-4.804023510742187,-7.865233544921875,0.41558671875,-13.19675572519084,10.970118320610688,251.02627099236642,0
6194,-6.448840051269531,-7.25471212158203,-1.0736067138671874,-17.49446564885496,30.634240458015267,251.02627099236642,0
6219,-9.350612463378905,-7.1373962402343745,-2.2060640991210936,-15.143320610687024,1.1609580152671757,241.0873396946565,0
6244,-11.086408666992188,-5.863680957031249,-1.4447079711914061,-12.173854961832062,5.733477099236641,207.27817938931298,0
6269,-11.61552723388672,-6.186898181152343,-0.628285205078125,8.093320610687023,-23.984080152671755,169.03390458015267,0
6294,-12.704888989257814,-6.809390612792968,-0.6689866333007812,7.96354961832061,28.222026717557252,119.15604198473282,0
6319,-12.235625463867187,-5.751153479003905,-0.580401171875,18.276526717557253,17.60370610687023,61.45375190839695,0
6344,-13.30583360595703,-5.1286610473632805,-1.566812255859375,26.14675572519084,-8.396293893129771,-9.08823282442748,0
6369,-13.054442431640624,-5.324985583496093,-0.6522272216796875,28.902480916030537,-31.304690839694654,-79.51571374045801,0
6394,-11.36653026123047,-5.7679128906249995,0.11152310791015624,21.810877862595422,-36.77797328244275,-140.17220229007634,0
6419,-10.79671026611328,-6.352098095703124,0.233627392578125,9.810877862595419,-43.068049618320615,-190.7447213740458,0
6444,-10.123939599609376,-6.917129687499999,0.252781005859375,-6.082251908396947,-36.2970572519084,-231.0653320610687,0
6469,-9.048943054199219,-7.2307701049804685,-0.020157983398437503,-16.02118320610687,-34.10621755725191,-249.24090458015266,0
6494,-7.363425085449219,-7.695245227050781,0.3078476440429687,-20.105152671755725,-25.472629770992366,-249.24090458015266,0
6520,-6.025066357421875,-7.067964392089843,0.003784033203124995,-23.1662213740458,-4.434461832061068,-249.24090458015266,0
6545,-4.5526323364257815,-7.4366714477539055,-0.743206884765625,-18.608969465648855,3.840347328244275,-249.24090458015266,0
6570,-2.266169750976563,-7.295413549804687,-0.3936534423828125,-9.311259541984732,-12.121484732824428,-249.24090458015266,0
6595,-0.32447220458984427,-6.557999438476562,-0.800667724609375,-4.960114503816794,-42.694003816793895,-249.24090458015266,0
6620,0.6906692993164061,-5.035287182617187,-0.36492302246093744,-11.87614503816794,-75.09095038167939,-249.24090458015266,0
6645,1.4951210571289062,-3.318644592285156,-0.8270039428710937,-31.761641221374042,-69.65583587786259,-249.24090458015266,0
6670,2.835873986816406,-2.985850561523437,-1.7846846069335938,-44.234923664122135,-69.3352251908397,-249.24090458015266,0
6695,4.6243426269531245,-4.000992065429687,-2.593924768066406,-61.418129770992365,-66.74743893129771,-249.24090458015266,0
6720,3.879745910644531,0.830506884765625,-2.265919140625,-95.34179389312978,44.122790076335875,-249.24090458015266,0
6745,5.084029345703124,4.7234787841796875,-1.51892822265625,-91.08988549618321,89.94721755725192,-249.24090458015266,0
6770,7.593152685546873,4.82403525390625,-2.2252177124023436,-62.49446564885496,76.02355343511451,-249.24090458015266,0
6795,8.80222452392578,4.323647106933594,-2.2970437622070308,-31.69293893129771,29.96248473282443,-249.24090458015266,0
6820,7.727227978515624,5.5327189453125,-1.7152527587890625,-2.5173664122137405,-48.52606488549618,-249.24090458015266,0
6845,6.52294454345703,7.187112292480468,-0.6402562133789063,-26.754007633587786,15.672408396946565,-249.24090458015266,0
6870,7.849332263183594,8.661940515136717,-1.8756642700195312,-36.02881679389313,59.16859160305343,-234.9126603053435,0
6895,9.561186450195311,8.831928833007812,-1.732012170410156,-29.303625954198473,26.214393129770993,-203.40884351145039,0
6921,8.294653771972655,8.89657227783203,-1.51892822265625,-8.822709923664123,-25.04514885496183,-175.43937786259542,0
6946,8.447882678222655,9.629197985839843,-1.8205976318359374,3.0017175572519084,-23.999347328244273,-143.1798358778626,0
6971,8.646601416015624,10.287603442382812,-2.0983250244140623,7.30706106870229,-7.73217175572519,-102.24090458015267,0
6996,9.17332578125,11.420060827636718,-2.4837914916992183,3.4673664122137406,13.038820610687024,-48.97372900763359,0
7021,10.753498876953124,11.410484020996092,-2.5915305664062496,7.566603053435114,1.4205,7.743828244274809,0
7046,10.760681481933592,11.561318725585936,-2.6489914062499995,18.558969465648858,-34.190187022900766,69.6522251908397,0
7071,10.389580224609375,10.771232177734374,-2.720817456054687,29.871946564885498,-48.877209923664125,133.59115648854961,0
7096,8.359297216796875,10.515052600097654,-2.265919140625,25.452099236641224,-12.640568702290075,194.24764503816795,0
7121,9.355285107421874,9.859041345214843,-2.328168383789062,9.673473282442748,43.7029427480916,248.3163473282443,0
7146,9.546821240234372,9.87340655517578,-2.0600177978515624,11.61240458015267,6.542637404580153,251.02627099236642,0
7171,9.079951916503905,10.036212268066405,-1.528505029296875,17.429198473282444,-41.701637404580154,251.02627099236642,0
7196,6.494214123535156,8.53983623046875,-0.9419256225585937,6.30706106870229,-9.274156488549618,251.02627099236642,0
7221,5.81426085205078,5.78171591796875,-0.1063492431640625,-16.723473282442747,49.14569083969465,251.02627099236642,0
7246,5.5796290893554685,4.388290551757812,-0.18535789794921875,-20.967748091603053,29.565538167938932,251.02627099236642,0
7271,4.298731201171875,2.6764363647460936,-1.2842964599609374,-12.311259541984732,-2.1138511450381676,251.02627099236642,0
7296,1.9380483642578117,0.45940562744140623,-1.42316015625,-0.4639312977099237,-25.480263358778625,251.02627099236642,0
7321,0.9300894653320309,-1.8988830078124999,-1.3633051147460937,10.337595419847329,-24.709270992366413,251.02627099236642,0
7347,-0.3220780029296879,-3.119925854492187,-1.394429736328125,18.910114503816796,-23.968812977099237,251.02627099236642,0
7372,-1.7873294189453128,-4.417583154296874,-1.6123020874023437,48.024618320610685,-90.47262977099236,251.02627099236642,0
7397,-2.105758239746094,-6.282666247558593,-1.1717689819335937,89.10095419847327,-151.49553053435113,251.02627099236642,0
7422,-3.4417227661132817,-7.091906408691406,-1.3609109130859374,83.0780534351145,-70.74743893129771,251.02627099236642,0
7447,-4.624458386230469,-5.873257763671875,-1.1621921752929687,79.94064885496182,-57.89247709923664,251.02627099236642,0
7472,-6.010701147460937,-6.773477587890625,-0.3170389892578125,85.81851145038168,-49.17491984732825,251.02627099236642,0
7497,-7.284416430664063,-6.984167333984375,0.05166806640624999,70.30706106870228,-1.7856068702290075,251.02627099236642,0
7522,-8.08407978515625,-6.546028430175781,0.3820678955078125,54.86431297709924,17.535003816793893,251.02627099236642,0
7547,-9.532571789550781,-5.901988183593749,0.37488529052734376,48.719274809160304,1.870881679389313,225.5758893129771,0
7572,-10.473493041992187,-6.431106750488281,1.0332907470703123,55.955916030534354,-52.060416030534356,181.5758893129771,0
7597,-12.16858781738281,-5.669750622558594,1.6605715820312499,46.85667938931298,-65.40392748091602,124.82016412213741,0
7622,-12.910790332031251,-6.4957501953125,3.0132955200195313,31.86431297709924,-51.86194274809161,59.6522251908397,0
7647,-12.889242517089844,-5.966631628417968,3.128217199707031,17.597137404580153,-46.98408015267176,-7.233270992366412,0
7672,-12.362518151855468,-5.28907255859375,3.4250982055664063,-0.8608778625954198,-56.09858396946565,-66.67601908396946,0
7697,-11.412020092773439,-5.497368103027343,3.738738623046875,-18.63950381679389,-63.480263358778636,-115.79052290076335,0
7723,-10.91881455078125,-5.990573645019531,4.124205090332031,-37.63950381679389,-49.258889312977104,-155.7447213740458,0
7748,-10.851776904296873,-6.306608264160156,3.3532721557617187,-54.357061068702286,-19.709270992366413,-191.81342366412213,0
7773,-10.38251337890625,-6.737564562988281,2.2064495605468752,-63.70820610687023,2.6189732824427483,-224.1951030534351,0
7798,-6.568550134277343,-7.573140942382812,1.2846819213867187,-55.34179389312977,-24.327591603053435,-249.24090458015266,0
7823,-6.377014001464843,-7.6042655639648435,1.2152500732421874,-55.31889312977099,-38.7321717557252,-249.24090458015266,0
7848,-5.141605944824219,-6.830938427734375,0.9830125122070312,-64.25782442748093,4.840347328244275,-249.24090458015266,0
7873,-4.174348474121094,-6.644190698242187,0.14504193115234373,-62.90667938931298,30.7792786259542,-249.24090458015266,0
7898,0.14479132080078072,-7.290625146484374,0.29348243408203123,-46.19675572519084,-1.4268282442748093,-249.24090458015266,0
7923,0.3626636718749996,-6.653767504882812,0.061244873046874995,-27.34179389312977,-77.17491984732824,-249.24090458015266,0
7948,-0.7865531250000002,-5.2411885253906245,-0.3385868041992187,-51.72347328244275,-35.388660305343514,-249.24090458015266,0
7973,0.8702344238281245,-3.5077865234374994,-0.9179836059570312,-77.25019083969467,42.58080534351145,-249.24090458015266,0
7998,5.203739428710937,-5.961843225097656,-1.042482092285156,-85.21965648854962,81.24492748091603,-249.24090458015266,0
8023,5.673002954101562,-5.30104356689453,-0.59955478515625,-58.616603053435114,2.9090496183206107,-249.24090458015266,0
8048,3.8390444824218743,-0.11759697265624999,-0.26197235107421873,-69.65477099236642,19.222026717557252,-249.24090458015266,0
8073,4.207751538085937,0.05957395019531249,-1.4064007446289062,-94.44103053435116,87.16859160305344,-249.24090458015266,0
8098,7.387251342773436,-0.14393319091796872,0.35812587890625003,-99.74637404580153,131.22966030534351,-249.24090458015266,0
8123,6.2236693359375,1.5846804077148435,0.6621894897460937,-68.11278625954199,72.61897328244275,-249.24090458015266,0
8149,5.419217578124999,5.152040881347656,0.9303400756835937,-54.83034351145038,52.756377862595414,-249.24090458015266,0
8174,7.815813439941405,6.583773474121093,0.645430078125,-53.96011450381679,66.51973664122137,-249.24090458015266,0
8199,10.976159631347656,5.6093333984375,1.2990471313476561,-34.479198473282445,35.557904580152666,-249.24090458015266,0
8224,9.635406701660155,7.431320861816406,1.1506066284179686,3.2688931297709924,-65.99171374045801,-249.24090458015266,0
8249,10.329725183105467,8.712218749999998,0.08997529296874998,-2.3188931297709923,-88.25125572519083,-239.81342366412213,0
8274,10.210015100097657,8.556595642089842,-0.35055781249999995,-19.425763358778624,-21.182553435114503,-181.41647709923663,0
8299,10.9737654296875,10.048183276367187,-0.992203857421875,-18.82270992366412,35.15332442748091,-112.69128625954198,0
8324,10.75589307861328,11.178246459960937,-0.915589404296875,1.0551526717557251,17.099889312977098,-53.943194656488544,0
8349,11.320924670410154,11.762431665039061,-0.5851895751953125,18.475,3.1304236641221372,-10.225637404580153,0
8374,11.555556433105469,11.633144775390624,-0.8389749511718749,34.955916030534354,-21.04514885496183,36.58352290076336,0
8399,12.149318444824218,11.518223095703124,-1.4279485595703125,53.45973282442748,-69.83140839694656,91.15604198473282,0
8424,9.673713928222654,11.403301416015623,-1.298661669921875,61.902480916030534,-82.09095038167939,150.95756870229008,0
8449,9.053615698242186,9.514276306152343,-0.8605227661132813,45.955916030534354,-2.312324427480916,208.00337022900763,0
8474,8.316201586914062,8.259714636230468,-0.8988299926757812,25.50553435114504,64.27546183206107,251.02627099236642,0
8499,8.670543432617187,6.902202294921874,-0.8030619262695312,3.2994274809160307,77.16095801526718,251.02627099236642,0
8524,8.723215869140624,6.519130029296875,0.08758109130859373,-9.891412213740459,39.87088167938931,251.02627099236642,0
8550,6.1087476562499985,6.657993725585937,0.9016096557617187,-16.921946564885495,15.206759541984733,251.02627099236642,0
8575,4.806301953125,4.002824084472656,0.8992154541015625,-24.273091603053434,19.41286641221374,251.02627099236642,0
8600,3.6714503662109372,0.9238807495117186,1.2607399047851562,-34.47156488549618,42.244927480916026,251.02627099236642,0
8625,3.1375433959960937,0.59108671875,0.7483807495117186,-47.799809160305344,57.00828625954198,251.02627099236642,0
8650,1.873404919433593,-1.1351326782226563,0.28390562744140624,-64.45629770992367,85.3059961832061,251.02627099236642,0
8675,0.7984083740234369,-2.8757172851562496,0.195320166015625,-74.6395038167939,83.3288969465649,251.02627099236642,0
8700,0.13042611083984346,-4.836568444824218,0.7866879760742187,-80.48683206106871,71.71820992366412,251.02627099236642,0
8725,0.776860559082031,-5.195698693847656,-0.685746044921875,-81.69293893129772,38.3441641221374,251.02627099236642,0
8750,-0.8727443847656253,-5.698481042480468,-0.9898096557617188,-29.891412213740455,-127.34285877862595,251.02627099236642,0
8775,-3.2023026000976564,-6.7423529663085935,0.11631151123046873,-1.7769083969465647,-157.05278244274808,251.02627099236642,0
8800,-3.1280823486328124,-7.470190270996093,0.30545344238281247,-19.937213740458013,-41.41919465648855,251.02627099236642,0
8825,-2.871902770996094,-7.697639428710937,-1.0664241088867188,-36.30362595419847,-10.365759541984731,251.02627099236642,0
8850,-5.637205688476563,-7.21640489501953,-1.5835716674804687,-19.372328244274808,-80.785606870229,251.02627099236642,0
8875,-7.1048513061523435,-6.902764477539062,-1.1358559570312499,-48.66240458015267,10.222026717557252,250.41558396946564,0
8900,-6.434474841308594,-5.542857934570312,-0.6498330200195312,-58.227290076335876,31.93195038167939,244.40031679389313,0
8925,-7.928456677246094,-6.395193725585937,-1.222047216796875,-43.95248091603053,-12.930645038167938,241.30108015267177,0
8950,-10.423214807128906,-4.63784970703125,-1.732012170410156,-60.58606870229008,48.305996183206105,236.8583320610687,0
8976,-10.940362365722656,-3.8190327392578123,-2.0145279663085938,-70.91431297709924,72.42813358778626,222.05680534351146,0
9001,-11.390472277832032,-6.486173388671874,-2.881228967285156,-67.02881679389314,64.47393511450382,180.0644389312977,0
9026,-20.064664892578122,-5.588347766113281,-0.6905344482421875,-1.0135496183206105,-91.25888931297709,-107.77525572519083,0
9051,-8.847830114746094,-5.820585327148437,0.3461548706054687,11.963549618320611,8.664774809160306,-129.6302175572519,0
9076,-11.076831860351561,-5.980996838378906,-0.8820705810546875,3.497900763358779,-16.5413320610687,-166.4241106870229,0
9101,-10.684182788085938,-7.388787414550781,-1.5404760375976563,-0.776908396946565,-9.640568702290075,-196.45464503816794,0
9126,-10.33702354736328,-7.4199120361328115,-2.3592930053710934,6.177290076335877,-0.006980916030534301,-229.66075190839695,0
9151,-8.158300036621092,-7.465401867675781,-1.6362441040039062,15.620038167938931,15.565538167938932,-249.24090458015266,0
9176,-7.071332482910156,-7.245135314941406,-1.42316015625,24.36812977099237,38.58080534351145,-249.24090458015266,0
9201,-5.266104431152344,-7.13979044189453,-1.6290614990234373,33.72690839694657,49.50446946564885,-249.24090458015266,0
9226,-3.3914445312500003,-6.660950109863281,-1.8205976318359374,42.74980916030535,46.611339694656486,-249.24090458015266,0
9251,-1.914222106933594,-6.392799523925781,-1.6793397338867186,51.91774809160305,16.96248473282443,-249.24090458015266,0
9276,0.16633913574218706,-6.557999438476562,-1.023328479003906,54.070419847328246,14.618973282442749,-249.24090458015266,0
9301,1.6627151733398433,-6.426318347167968,-0.5349113403320312,58.085687022900764,28.466301526717558,-249.24090458015266,0
9326,1.2245762695312497,-5.104719030761718,-1.2388066284179686,66.23835877862595,6.298362595419848,-249.24090458015266,0
9351,2.9388246582031243,-3.9626848388671867,-1.5045630126953125,54.00171755725191,34.32889694656488,-249.24090458015266,0
9377,4.375345654296875,-3.608342993164062,-0.23324193115234373,50.574236641221376,51.481568702290076,-249.24090458015266,0
9402,4.708139685058593,-3.234847534179687,0.09236949462890623,61.60477099236641,14.496835877862596,-249.24090458015266,0
9427,4.016215405273437,1.0364082275390625,0.11152310791015624,43.92538167938932,53.680041984732824,-249.24090458015266,0
9452,6.929958825683593,1.8432541870117185,0.6526126831054687,40.24599236641222,57.36706488549618,-249.24090458015266,0
9477,7.609912097167968,2.4537756103515624,0.9447052856445312,45.03225190839695,26.718209923664123,-249.24090458015266,0
9502,7.140648571777343,6.387448937988281,1.2463746948242187,54.61240458015267,-64.55659923664122,-249.24090458015266,0
9527,6.860526977539062,4.596586096191406,0.386856298828125,46.31469465648855,-94.52606488549618,-249.24090458015266,0
9552,6.891651599121093,6.416179357910156,0.233627392578125,17.123854961832063,-3.24362213740458,-249.24090458015266,0
9577,7.497384619140624,8.242955224609373,0.3916447021484375,5.322328244274809,65.59607251908398,-249.24090458015266,0
9602,8.993760656738282,10.175075964355468,0.520931591796875,11.7956106870229,54.0998893129771,-248.53098091603053,0
9627,9.798212414550779,10.50547579345703,0.4275577270507812,26.284160305343512,-16.526064885496183,-214.48517938931298,0
9652,8.814195532226563,10.373794702148436,0.6837373046874999,20.52080152671756,-52.79324045801527,-166.17220229007634,0
9677,9.015308471679688,10.75447276611328,0.8489372192382811,-16.036450381679387,37.87088167938931,-100.11876717557251,0
9702,11.399933325195313,11.259649316406248,1.4642470458984373,-34.15095419847328,64.53500381679389,-23.882125954198475,0
9727,11.84764903564453,11.946785192871092,1.0476559570312498,-31.49446564885496,-8.121484732824428,55.522454198473284,0
9753,10.29620635986328,10.847846630859374,1.153000830078125,-36.58606870229008,-27.10621755725191,122.83543129770993,0
9778,9.609070483398437,10.725742346191405,0.8704850341796874,-50.8456106870229,3.206759541984733,176.8965,0
9803,10.533232324218748,10.469562768554686,1.3014413330078123,-49.059351145038164,-15.900110687022899,221.94993511450383,0
9828,10.059180395507813,10.50547579345703,1.5312846923828123,-41.372328244274804,-60.21308778625954,251.02627099236642,0
9853,8.90996359863281,9.50948790283203,1.3301717529296875,-51.4486641221374,-34.86194274809161,251.02627099236642,0
9878,8.69448544921875,8.221407409667968,1.31580654296875,-56.43339694656488,-10.541332061068701,251.02627099236642,0
9903,7.990590161132812,7.3331585937499995,1.1841254516601563,-51.99064885496183,-15.556599236641222,251.02627099236642,0
9928,5.895663708496094,5.171194494628907,0.7196503295898437,-44.62423664122137,-23.327591603053435,251.02627099236642,0
9953,4.827849768066406,2.427439392089844,0.386856298828125,-67.91431297709924,46.35179770992366,251.02627099236642,0
9978,3.975513977050781,0.5048954589843749,0.7962647827148437,-87.37996183206107,73.35179770992367,251.02627099236642,0
10003,3.4440012084960934,-0.7616372192382812,0.8489372192382811,-105.12805343511451,72.39759923664123,251.02627099236642,0
10028,2.5820886108398433,-1.7241062866210937,0.32460705566406245,-108.19675572519084,35.57317175572519,251.02627099236642,0
10053,1.313161730957031,-3.376105432128906,0.05885067138671875,-106.44103053435116,7.90904961832061,251.02627099236642,0
10078,-0.6859966552734378,-4.975432141113281,0.08518688964843749,-106.87614503816795,13.145690839694657,251.02627099236642,0
10103,-1.0834341308593753,-5.1861218872070305,-0.41998966064453125,-110.14332061068703,-1.5489656488549617,251.02627099236642,0
10128,-2.4672826904296876,-6.35449229736328,-0.11353184814453125,-104.70820610687024,-34.3352251908397,251.02627099236642,0
10154,-2.9652766357421876,-7.738340856933593,-1.2579602416992186,-98.8837786259542,-51.388660305343514,251.02627099236642,0
10179,-4.241386120605469,-6.778265991210937,-1.74877158203125,-81.08225190839696,-112.94591221374046,244.59115648854961,0
10204,-4.566997546386719,-7.0248687622070305,-2.8237681274414057,-69.99064885496183,-123.12911832061069,232.8201641221374,0
10229,-4.035484777832031,-7.601871362304687,-2.239582922363281,-61.72347328244275,-113.26652290076335,218.99573664122138,0
10254,-6.66671240234375,-6.9314948974609365,-2.402388635253906,-61.45629770992366,-74.24362213740457,205.00337022900763,0
10279,-8.175059448242187,-5.942689611816406,-2.787855102539062,-49.929580152671754,-62.373393129770996,197.84306488549618,0
10304,-8.464757849121094,-6.071976501464843,-2.890805773925781,-35.03645038167939,-52.64056870229008,186.96520229007635,0
10329,-9.611580444335937,-4.568417858886718,-3.1733215698242185,-10.128053435114504,-70.97644656488549,166.3163473282443,0
10354,-11.052889843749998,-5.964237426757812,-2.6250493896484373,0.4979007633587786,-39.92301145038168,133.8201641221374,0
10379,-11.864524206542967,-5.949872216796875,-2.0815656127929683,18.062786259541987,-18.75507251908397,92.39268320610687,0
10404,-11.869312609863282,-5.736788269042968,-1.9857975463867186,33.72690839694657,-17.617667938931298,45.514820610687025,0
10429,-12.364912353515624,-6.2922430541992185,-1.3896413330078123,45.139122137404584,-30.625301526717553,-7.29433969465649,0
10454,-11.759179333496093,-6.675315319824218,-0.3625288208007812,38.398664122137404,3.855614503816794,-50.6302175572519,0
10479,-10.897266735839843,-6.352098095703124,-0.5301229370117188,28.940648854961832,14.229660305343511,-85.12640076335877,0
10504,-11.000217407226561,-5.990573645019531,-1.2435950317382811,24.910114503816796,-12.854309160305343,-116.50808015267175,0
10529,-11.69214168701172,-6.2730894409179685,-2.0624119995117183,18.383396946564886,-23.76270610687023,-150.0653320610687,0
10555,-10.30589892578125,-6.862063049316406,-2.34253359375,22.406297709923667,-47.07568320610687,-194.81342366412213,0
10580,-8.989088012695312,-7.582717749023437,-1.7942614135742188,37.12385496183206,-77.51843129770992,-249.24090458015266,0
10605,-7.674671301269531,-8.262671020507813,-0.06085941162109375,46.80324427480916,-65.1443854961832,-249.24090458015266,0
10630,-7.114428112792969,-6.866851452636718,-0.762360498046875,39.8337786259542,-28.40392748091603,-249.24090458015266,0
10655,-5.009924853515625,-5.808614318847655,-1.0831835205078124,30.64293893129771,-19.945912213740456,-249.24090458015266,0
10680,-2.9173926025390626,-5.813402722167968,-0.6258910034179688,22.49790076335878,-18.006980916030535,-249.24090458015266,0
10705,0.6810924926757806,-7.199645483398437,0.674160498046875,33.940648854961836,-54.77797328244275,-249.24090458015266,0
10730,0.6810924926757806,-5.818191125488281,0.3126360473632812,35.61240458015267,-88.61003435114503,-249.24090458015266,0
10755,0.4488549316406245,-3.1606272827148434,-0.17817529296874998,3.2994274809160307,-49.518431297709924,-249.24090458015266,0
10780,3.2524650756835936,-1.8486047729492188,-1.1167023437499999,-16.433396946564883,-30.94591221374046,-249.24090458015266,0
10805,5.464707409667969,-3.7950907226562496,-0.4128070556640625,0.4062977099236641,-136.85430916030535,-249.24090458015266,0
10830,4.236481958007812,-2.341810314941406,-0.7695431030273437,-35.39522900763359,-103.6711030534351,-249.24090458015266,0
10855,4.121560278320312,3.4521577026367187,-0.7072938598632812,-66.28835877862596,-29.716904580152672,-249.24090458015266,0
10880,6.917987817382811,3.0834506469726564,-1.4782267944335936,-72.89141221374047,4.512103053435115,-249.24090458015266,0
10905,7.265147058105469,2.918250732421875,-2.3904176269531248,-59.112786259541984,-62.79324045801527,-249.24090458015266,0
10931,8.522102929687499,8.290839257812499,-1.720041162109375,-69.73110687022901,-97.13675190839695,-249.24090458015266,0
10956,7.585970080566406,6.531101037597656,-2.8524985473632807,-85.77690839694657,-70.23598854961831,-249.24090458015266,0
10981,7.138254370117187,5.970857849121094,-2.759124682617187,-101.51736641221375,52.130423664122134,-230.11113358778627,0
11006,8.656178222656248,8.599691271972656,-3.233176611328125,-79.70057251908398,84.3288969465649,-214.85159160305344,0
11031,8.079175622558594,9.581313952636718,-3.228388208007812,-40.83797709923664,37.50446946564885,-203.65311832061067,0
11056,8.074387219238279,10.19901798095703,-2.747153674316406,-18.21202290076336,41.3823320610687,-186.54624809160305,0
11081,9.166143176269529,10.357035290527342,-2.680116027832031,9.833778625954197,-3.358125954198473,-152.37067557251908,0
11106,8.965030236816407,11.805527294921873,-2.411965441894531,12.61240458015267,-2.2665229007633587,-105.5538816793893,0
11131,9.546821240234372,11.946785192871092,-2.1270554443359373,3.497900763358779,21.59607251908397,-49.179835877862594,0
11156,10.98573643798828,11.489492675781248,-2.0695946044921874,-3.0364503816793893,37.183858778625954,14.087339694656489,0
11181,10.681672827148436,11.767220068359373,-1.7751078002929688,3.894847328244275,-0.7245381679389311,85.01863740458016,0
11206,10.063968798828125,11.412878222656248,-1.6075136840820312,-2.02118320610687,-8.350492366412213,154.13314122137405,0
11231,9.41514014892578,10.730530749511717,-1.3034500732421874,-15.631870229007633,29.07698854961832,215.7667290076336,0
11256,11.103052319335937,10.797568395996093,-0.9251662109375,-20.2043893129771,20.031187022900763,251.02627099236642,0
11281,9.75990518798828,11.171063854980467,-0.8533401611328125,-9.631870229007633,-42.739805343511456,251.02627099236642,0
11306,7.892427893066405,10.036212268066405,-0.1590216796875,-17.906679389312977,-18.060416030534352,251.02627099236642,0
11332,7.597941088867187,9.140780847167967,-0.0393115966796875,-4.69293893129771,-44.0527824427481,251.02627099236642,0
11357,5.637089929199218,8.08014951171875,-0.3385868041992187,-3.738740458015267,-3.58713358778626,251.02627099236642,0
11382,4.396893469238281,3.5958098022460936,-0.3266157958984375,-4.349427480916031,3.4281335877862595,251.02627099236642,0
11407,2.984314489746093,1.9485990600585936,-0.9634734375,-26.2043893129771,42.76401145038167,251.02627099236642,0
11432,2.3354858398437495,-0.15111579589843752,-0.8653111694335938,-23.372328244274808,12.695309160305344,251.02627099236642,0
11457,1.782425256347656,-1.9731032592773439,-1.7703193969726563,-34.57843511450382,36.939583969465644,251.02627099236642,0
11482,0.7146113159179683,-2.9595143432617186,-1.7990498168945313,-50.860877862595416,36.96248473282442,251.02627099236642,0
11507,-2.057874206542969,-2.578836279296875,-1.3202094848632813,-16.50973282442748,-80.31232442748092,251.02627099236642,0
11532,-2.788105712890625,-3.8333979492187495,-1.3656993164062499,35.1543893129771,-172.0909503816794,251.02627099236642,0
11557,-3.994783349609375,-4.910788696289062,-1.0616357055664063,49.34522900763359,-119.785606870229,251.02627099236642,0
11582,-4.883032165527344,-5.966631628417968,-1.2866906616210938,26.879580152671757,-13.854309160305343,251.02627099236642,0
11607,-9.767203552246094,-3.1318968627929684,-1.4949862060546875,9.711641221374045,-2.90774427480916,251.02627099236642,0
11632,-7.672277099609375,-5.808614318847655,-1.5859658691406249,0.8261450381679389,36.36706488549618,251.02627099236642,0
11657,-8.881348937988282,-5.820585327148437,-1.1717689819335937,-9.50973282442748,54.92431679389313,251.02627099236642,0
11682,-10.727278417968751,-5.6745390258789055,-1.1023371337890624,-10.70057251908397,44.81744656488549,251.02627099236642,0
11708,-13.49018713378906,-6.627431286621094,-1.502168811035156,-23.05171755725191,64.5502709923664,209.9728358778626,0
11733,-14.6154619140625,-5.459060876464843,-1.5332934326171874,-28.63950381679389,68.82508015267176,137.484286259542,0
11758,-13.890018811035155,-4.987403149414062,-3.0560056884765623,-35.799809160305344,-46.60240076335878,-64.22563740458016,0
11783,-13.681723266601562,-5.2052755004882805,-1.3848529296874998,-33.18912213740458,-36.6176679389313,-128.22563740458014,0
11808,-11.850158996582032,-4.551658447265624,-1.528505029296875,-23.921946564885495,-42.80087404580153,-172.0271641221374,0
11833,-11.280339001464842,-5.731999865722655,-1.9067888916015625,-15.639503816793892,-52.503164122137406,-208.95846183206106,0
11858,-9.867760021972657,-6.965013720703125,-2.057623596191406,-7.837977099236642,-41.068049618320615,-243.8210572519084,0
11883,-7.77762197265625,-7.846079931640625,-1.1669805786132812,5.2688931297709924,-43.09858396946565,-249.24090458015266,0
11908,-6.489541479492187,-7.575535144042968,-1.17416318359375,4.1543893129770995,-14.518431297709924,-249.24090458015266,0
11933,-5.665936108398437,-6.586729858398437,-1.7344063720703125,0.6429389312977098,-3.3199580152671753,-249.24090458015266,0
11958,-4.2725107421875,-6.289848852539062,-1.6937049438476561,-2.7769083969465647,2.718209923664122,-249.24090458015266,0
11983,-2.182372692871094,-6.833332629394531,-0.858128564453125,0.5360687022900763,16.222026717557252,-249.24090458015266,0
12008,-0.23349254150390664,-7.065570190429687,-0.762360498046875,14.46736641221374,-10.335225190839694,-249.24090458015266,0
12033,-0.43221127929687553,-5.940295410156249,-1.4064007446289062,18.398664122137404,-43.22835496183206,-249.24090458015266,0
12058,0.037052246093749464,-5.540463732910156,-1.9187598999023436,0.21545801526717556,-40.67110305343512,-249.24090458015266,0
12084,2.0314222290039057,-4.544475842285156,-1.1286733520507812,-16.525,-25.57186641221374,-249.24090458015266,0
12109,3.6115953247070305,-5.526098522949218,-0.9993864624023437,-4.013549618320611,-119.13675190839695,-249.24090458015266,0
12134,2.9388246582031243,-3.5269401367187494,-2.1893046874999995,-57.608969465648855,-29.174919847328244,-249.24090458015266,0
12159,3.6642677612304686,0.14815941162109375,-1.7655309936523438,-85.39522900763359,29.977751908396947,-249.24090458015266,0
12184,6.7623647094726556,0.24153327636718747,-3.015304260253906,-76.70057251908398,0.32889694656488566,-249.24090458015266,0
12209,6.673779248046874,0.9693705810546874,-2.929113000488281,-73.51736641221375,-60.571866412213744,-249.24090458015266,0
12234,6.412811267089842,3.8902966064453124,-2.1031134277343746,-100.8837786259542,-10.24362213740458,-249.24090458015266,0
12259,6.745605297851562,4.2901282836914065,-3.0105158569335932,-107.63187022900765,55.756377862595414,-249.24090458015266,0
12284,7.609912097167968,5.779321716308593,-3.601883666992187,-97.3570610687023,78.67240839694657,-249.24090458015266,0
12309,7.518932434082031,8.190282788085936,-3.666527111816406,-73.33416030534352,51.00828625954198,-249.24090458015266,0
12334,7.585970080566406,9.066560595703123,-3.5396344238281245,-49.4486641221374,7.298362595419848,-249.24090458015266,0
12359,7.178955798339843,9.792003698730467,-3.3576750976562497,-43.4486641221374,36.97775190839695,-249.24090458015266,0
12384,7.23881083984375,10.527023608398435,-2.6346261962890622,-26.944847328244272,65.32126335877862,-238.56151526717557,0
12409,9.43429376220703,10.402525122070312,-3.005727453613281,6.95591603053435,32.10752290076336,-177.88975954198472,0
12435,10.619423583984375,11.259649316406248,-2.739971069335937,24.543702290076336,14.25256106870229,-96.72182061068702,0
12460,11.304165258789062,10.871788647460937,-2.546040734863281,25.238358778625955,21.64950763358779,-5.897393129770993,0
12485,10.779835095214843,11.75046065673828,-2.210852502441406,8.887213740458014,40.3441641221374,83.43085114503818,0
12510,11.263463830566405,10.706588732910156,-1.7655309936523438,-8.967748091603054,44.47393511450382,154.3163473282443,0
12535,10.14297745361328,10.634762683105468,-1.1430385620117187,-19.86851145038168,26.7411106870229,210.16367557251908,0
12560,10.006507958984376,9.435267651367186,-0.7982735229492187,-34.02118320610687,42.28309541984733,251.02627099236642,0
12585,10.415916442871094,9.820734118652343,-0.3864708374023438,-39.87614503816794,24.535003816793893,251.02627099236642,0
12610,9.328948889160156,9.526247314453125,0.018149243164062495,-36.37996183206107,-5.136751908396947,251.02627099236642,0
12635,9.254728637695312,7.864671362304687,-0.0967724365234375,-29.891412213740455,-12.526064885496183,251.02627099236642,0
12660,7.396828149414062,6.859106665039063,-0.3768940307617187,-7.128053435114504,-48.70927099236641,251.02627099236642,0
12685,6.542098156738281,5.336394409179688,-0.5181519287109375,7.704007633587786,-41.5795,251.02627099236642,0
12710,5.450342199707031,2.2622394775390626,-0.8916473876953125,14.513167938931298,-28.136751908396946,251.02627099236642,0
12735,5.498226232910155,1.251886376953125,-1.4183717529296875,17.421564885496185,-31.319958015267172,251.02627099236642,0
12760,3.211763647460937,-1.1016138549804688,-1.3800645263671873,11.841412213740458,0.47393511450381687,251.02627099236642,0
12785,2.550963989257812,-2.636297119140625,-1.492592004394531,8.276526717557251,-1.8314083969465647,251.02627099236642,0
12810,1.284431311035156,-3.390470642089843,-1.5141398193359374,7.032251908396947,-14.671103053435115,251.02627099236642,0
12836,-0.3723562377929692,-3.7472066894531246,-1.0041748657226561,10.116221374045802,-39.03751526717558,251.02627099236642,0
12861,-2.2589871459960937,-4.012963073730468,-0.9874154541015625,34.62003816793893,-98.88484351145038,251.02627099236642,0
12886,-3.6236820922851565,-5.837344738769531,-0.05607100830078125,55.74980916030535,-94.3352251908397,251.02627099236642,0
12911,-5.692272326660156,-6.608277673339843,0.48980697021484365,21.032251908396947,24.680041984732824,251.02627099236642,0
12936,-6.216602490234375,-6.174927172851562,-0.16620428466796874,10.711641221374045,15.290729007633589,251.02627099236642,0
12961,-7.274839624023437,-6.486173388671874,-0.3337984008789062,1.8566793893129772,3.4968358778625954,251.02627099236642,0
12986,-8.201395666503906,-6.33533868408203,-0.47505629882812495,-12.738740458015268,6.466301526717558,251.02627099236642,0
13011,-10.013806323242187,-6.330550280761718,-0.59955478515625,-20.00591603053435,-2.877209923664122,236.41558396946564,0
13036,-10.19097724609375,-5.846921545410155,-0.8820705810546875,-40.19675572519084,62.6647748091603,196.88886641221373,0
13061,-10.583626318359375,-4.915577099609375,-1.3249978881835938,-17.715839694656488,8.122790076335878,157.16367557251908,0
13086,-11.488634545898439,-5.332168188476562,-1.1406443603515624,1.1009541984732825,-7.3657595419847315,111.06443893129772,0
13111,-12.235625463867187,-5.454272473144531,-1.0185400756835936,21.35286259541985,-13.197820610687023,60.53008778625954,0
13136,-12.530112268066407,-6.007333056640625,-0.6809576416015625,34.65820610687023,-6.541332061068703,4.423217557251908,0
13161,-12.364912353515624,-5.961843225097656,-0.5756127685546875,44.5513358778626,-17.289423664122136,-51.4622786259542,0
13186,-11.869312609863282,-6.0863417114257805,0.17616655273437498,39.765076335877865,-26.159652671755726,-100.11113358778626,0
13212,-11.25639698486328,-6.203657592773437,0.8465430175781249,23.696374045801527,-27.342858778625953,-145.6149503816794,0
13237,-11.076831860351561,-6.524480615234374,0.8776676391601562,9.360496183206106,-44.63293511450382,-190.1951030534351,0
13262,-10.732066821289063,-6.835726831054687,0.6047286499023437,-7.097519083969466,-29.76270610687023,-230.0271641221374,0
13287,-8.895714147949219,-6.864457250976562,0.6310648681640625,-14.143320610687024,-28.632935114503816,-249.24090458015266,0
13312,-7.870995837402344,-7.115848425292969,0.5927576416015624,-16.738740458015265,-23.2207213740458,-249.24090458015266,0
13337,-5.1152697265625005,-7.5300453124999995,1.08596318359375,-16.250190839694657,-9.57186641221374,-249.24090458015266,0
13362,-3.83197763671875,-7.903540771484374,-0.034523193359375,-12.769274809160306,-8.55659923664122,-249.24090458015266,0
13387,-3.4584821777343753,-6.579547253417968,-0.8892531860351562,-11.02881679389313,-15.54896564885496,-249.24090458015266,0
13412,-0.630930017089844,-6.115072131347656,-0.6522272216796875,-14.04408396946565,-13.434461832061068,-249.24090458015266,0
13437,2.1990163452148437,-6.122254736328125,-0.5013925170898437,-6.441030534351145,-59.243622137404586,-249.24090458015266,0
13463,1.9093179443359372,-3.780725512695312,-1.3465457031249999,-13.410496183206106,-102.44209541984732,-249.24090458015266,0
13488,2.5581465942382806,-2.025775695800781,-2.0839598144531246,-34.234923664122135,-124.63293511450381,-249.24090458015266,0
13513,5.060087329101562,-4.307449877929687,-1.3896413330078123,-48.53263358778626,-158.32759160305343,-249.24090458015266,0
13538,4.842214978027343,-1.3458224243164063,-1.8205976318359374,-70.6013358778626,-191.21308778625954,-249.24090458015266,0
13563,3.4966736450195306,3.0164130004882814,-2.692087036132812,-139.45629770992366,-30.289423664122136,-249.24090458015266,0
13588,6.781518322753905,4.982052563476563,-4.157338452148437,-148.05935114503816,17.61133969465649,-249.24090458015266,0
13613,7.511749829101562,4.112957360839843,-4.930665588378906,-117.4333969465649,-93.44972900763358,-249.24090458015266,0
13639,6.824613952636718,3.878325598144531,-4.3728166015625,-111.3570610687023,-109.1825534351145,-249.24090458015266,0
13664,6.1231128662109375,5.515959533691406,-4.617025170898438,-111.83797709923665,-44.67110305343512,-249.24090458015266,0
13689,7.5309034423828125,8.140004553222655,-5.1054423095703125,-94.49446564885497,-35.27415648854962,-249.24090458015266,0
13714,6.661808239746093,9.188664880371093,-5.170085754394531,-75.05171755725192,-37.45736259541985,-224.1798358778626,0
13739,7.770323608398436,8.73616076660156,-5.984114318847656,-69.76927480916031,35.802179389312975,-182.88975954198472,0
13764,9.125441748046875,10.84305822753906,-5.998479528808594,-49.868511450381675,64.96248473282442,-131.0118969465649,0
13789,10.245928124999999,12.226906787109373,-6.197198266601562,-27.150954198473283,51.0998893129771,-64.35540839694656,0
13814,11.56034483642578,10.68982932128906,-6.321696752929688,-10.150954198473283,45.10752290076336,7.201843511450381,0
13839,12.027214160156248,11.240495703125,-6.051151965332031,12.215458015267176,19.59607251908397,73.17130916030534,0
13864,11.320924670410154,10.402525122070312,-5.476543566894531,36.03225190839695,-26.5795,134.30871374045802,0
13889,9.254728637695312,9.856647143554687,-4.597871557617188,43.1162213740458,-13.610034351145037,184.23237786259543,0
13914,8.826166540527343,9.231760510253904,-4.370422399902344,37.97881679389313,30.4205,230.28581297709923,0
13939,9.084740319824217,8.764891186523437,-4.198039880371094,37.74217557251909,39.86324809160305,251.02627099236642,0
13964,9.056009899902342,9.112050427246093,-3.774266186523437,47.78034351145038,11.359431297709925,251.02627099236642,0
13989,7.502173022460936,7.7066540527343745,-3.7670835815429684,71.59713740458015,-27.777973282442748,251.02627099236642,0
14014,6.67617344970703,5.683553649902343,-3.5875184570312495,85.8337786259542,-20.73217175572519,251.02627099236642,0
14040,6.022556396484375,4.9964177734375,-3.190080981445312,97.24599236641221,-16.556599236641222,251.02627099236642,0
14065,4.382528259277343,2.8320594726562502,-3.0464288818359373,95.52843511450381,11.038820610687024,251.02627099236642,0
14090,4.1742327148437495,0.9214865478515624,-2.739971069335937,94.00171755725191,20.199125954198475,251.02627099236642,0
14115,2.2085931518554682,-1.2500543579101562,-1.7990498168945313,83.80324427480916,49.565538167938925,251.02627099236642,0
14140,1.0905009765624998,-1.9826800659179689,-1.796655615234375,74.16202290076335,61.01591984732824,251.02627099236642,0
14165,0.8941764404296872,-4.412794750976562,-2.5340697265624996,64.81851145038168,50.19149236641221,251.02627099236642,0
14190,-0.6572662353515628,-4.163797778320312,-2.265919140625,67.94064885496182,23.160958015267177,251.02627099236642,0
14215,-2.163219079589844,-4.908394494628906,-1.3130268798828124,70.86431297709923,13.000652671755725,251.02627099236642,0
14240,-3.465664782714844,-5.114295837402343,-0.98262705078125,67.6429389312977,22.374698473282443,251.02627099236642,0
14265,-4.545449731445313,-5.394417431640624,-0.8892531860351562,78.25362595419847,-1.8772099236641222,251.02627099236642,0
14290,-5.682695520019531,-5.1286610473632805,-0.22366512451171874,80.34522900763358,-2.4039274809160305,251.02627099236642,0
14315,-7.358636682128906,-5.32019718017578,0.13067672119140625,74.32996183206106,16.038820610687022,251.02627099236642,0
14340,-9.281180615234375,-6.309002465820312,0.0013898315429687474,57.09332061068702,43.9472175572519,251.02627099236642,0
14365,-11.203724548339842,-4.874875671386718,0.45389394531249994,37.58950381679389,52.14569083969465,251.02627099236642,0
14390,-12.235625463867187,-5.090353820800781,0.5137489868164062,1.3299618320610687,98.32126335877864,234.04917175572518,0
14416,-12.87248310546875,-4.410400549316406,0.5616330200195312,-2.7845419847328245,49.39759923664122,185.40031679389313,0
14441,-22.238599999999998,-10.0200150390625,5.484111633300781,13.352862595419847,-123.1443854961832,-47.15693511450382,0
14466,-14.866853088378907,-4.216470214843749,1.3612963745117186,-27.028816793893128,-41.85430916030535,-97.14166793893129,0
14491,-10.7081248046875,-4.245200634765625,2.330948046875,-23.242557251908394,-15.861942748091604,-129.73708778625954,0
14516,-11.048101440429686,-5.138237854003906,1.586351330566406,-33.799809160305344,-11.312324427480915,-151.53098091603053,0
14541,-10.825440686035154,-6.191686584472656,0.7531691528320312,-45.85324427480916,4.6571412213740455,-172.22563740458014,0
14566,-9.96831649169922,-6.871639855957031,0.0564564697265625,-46.227290076335876,-1.892477099236641,-199.1416679389313,0
14591,-9.273998010253905,-6.957831115722656,-0.21887672119140625,-47.77690839694657,18.657141221374047,-227.9889961832061,0
14616,-7.734526342773437,-7.290625146484374,-0.2595781494140625,-42.30362595419847,41.19149236641221,-249.24090458015266,0
14641,-6.087315600585938,-6.8931876708984365,-0.657015625,-30.05171755725191,41.756377862595414,-249.24090458015266,0
14666,-4.566997546386719,-6.749535571289062,-0.992203857421875,-17.624236641221373,28.687675572519083,-249.24090458015266,0
14691,-2.412216052246094,-7.051204980468749,-0.5253345336914063,-9.379961832061069,23.88614885496183,-249.24090458015266,0
14716,-0.13054187011718765,-6.47659658203125,-0.8222155395507812,-5.486832061068703,14.451034351145038,-249.24090458015266,0
14741,0.1878869506835934,-5.116690039062499,-1.1861341918945312,-22.815076335877862,78.74874427480917,-249.24090458015266,0
14766,0.8606576171874996,-3.859734167480468,-1.952278723144531,-11.54790076335878,65.16859160305343,-249.24090458015266,0
14791,3.075294152832031,-5.466243481445312,-1.4279485595703125,-17.883778625954196,105.84798091603054,-249.24090458015266,0
14817,3.4942794433593747,-3.3593460205078123,-1.0281168823242186,-4.143320610687023,78.5350038167939,-249.24090458015266,0
14842,6.293101184082031,-3.4982097167968744,-0.13986806640625,-4.631870229007634,140.80217938931298,-249.24090458015266,0
14867,6.75278790283203,-3.1079548461914057,-0.17578109130859373,29.871946564885498,54.69530916030534,-249.24090458015266,0
14892,5.893269506835936,-0.45278520507812503,-0.08480142822265624,47.642938931297714,-6.877209923664122,-249.24090458015266,0
14917,7.387251342773436,-0.4408141967773438,0.08758109130859373,42.444465648854965,4.611339694656489,-249.24090458015266,0
14942,7.696103356933594,0.2798405029296875,-0.12310865478515624,32.337595419847325,32.3441641221374,-249.24090458015266,0
14967,7.588364282226562,4.864736682128906,0.77950537109375,33.74217557251909,-10.55659923664122,-249.24090458015266,0
14992,7.863697473144531,6.753761791992187,0.6502184814453125,31.70400763358779,-63.03751526717557,-249.24090458015266,0
15017,8.538862341308594,5.09218583984375,-0.8150329345703125,25.48263358778626,-107.64820229007633,-249.24090458015266,0
15042,7.3824629394531245,5.9995882690429685,-1.2076820068359375,5.13912213740458,-63.88484351145039,-249.24090458015266,0
15067,7.69131495361328,7.165564477539062,-1.6146962890624998,-3.3646946564885494,-2.060416030534351,-244.60731679389312,0
15092,7.693709155273436,8.051419091796875,-1.4303427612304687,-3.1967557251908394,65.46630152671756,-207.64548473282443,0
15117,9.096711328125,9.339499584960937,-1.2819022583007813,15.28416030534351,50.64950763358778,-160.67601908396946,0
15142,8.797436120605468,11.21415948486328,-1.0281168823242186,24.085687022900764,43.35179770992366,-106.97372900763358,0
15167,11.598652062988279,10.251690417480468,-0.7384184814453125,30.261259541984735,53.00828625954198,-43.19510305343511,0
15193,12.348037182617187,11.266831921386718,0.33418386230468744,38.513167938931296,31.519736641221375,26.530087786259543,0
15218,11.2802232421875,10.529417810058593,0.9016096557617187,28.184923664122138,18.183858778625954,94.07970610687023,0
15243,10.389580224609375,9.650745800781248,1.126664611816406,-7.738740458015268,47.52737022900763,148.99573664122138,0
15268,11.5866810546875,9.985934033203124,1.0237139404296873,-47.418129770992365,45.86324809160305,196.23237786259543,0
15293,11.423875341796872,10.567725036621093,1.1601834350585936,-64.36469465648855,-18.503164122137402,247.98046946564887,0
15318,9.654560314941406,10.445620751953124,0.8633024291992186,-64.51736641221375,-73.31995801526718,251.02627099236642,0
15343,8.732792675781248,9.282038745117186,0.5257199951171875,-64.89904580152673,-77.20545419847328,251.02627099236642,0
15368,8.179732092285157,8.089726318359375,-0.16620428466796874,-58.43339694656488,-73.89247709923664,251.02627099236642,0
15393,6.781518322753905,7.656375817871093,-0.4678736938476562,-36.40286259541985,-100.4268282442748,251.02627099236642,0
15418,4.4759021240234365,4.3092818969726565,-1.394429736328125,-17.219656488549617,-89.39629389312977,251.02627099236642,0
15443,3.3338679321289053,1.800158557128906,-1.5356876342773438,-7.608969465648855,-48.46499618320611,251.02627099236642,0
15468,2.9484014648437498,-0.18463461914062498,-2.0312873779296874,0.3528625954198473,-21.42682824427481,251.02627099236642,0
15493,1.7129934082031246,-1.3027267944335936,-1.9450961181640625,10.833778625954197,-29.304690839694658,251.02627099236642,0
15518,0.1280319091796871,-2.4064537597656246,-1.8996062866210937,19.98645038167939,-42.10621755725191,251.02627099236642,0
15543,-1.1528659790039064,-3.7735429077148432,-1.7080701538085936,29.604770992366415,-38.823774809160305,251.02627099236642,0
15568,-1.7729642089843751,-4.197316601562499,-2.1079018310546873,36.84141221374046,-41.52606488549618,251.02627099236642,0
15594,-3.52551982421875,-4.913182897949218,-1.7846846069335938,48.085687022900764,-62.42682824427481,251.02627099236642,0
15619,-5.534255017089844,-5.3178029785156244,-0.9562908325195312,60.30706106870229,-81.15201908396946,251.02627099236642,0
15644,-6.6738950073242185,-5.743970874023437,-0.3122505859375,63.627671755725196,-39.510797709923665,251.02627099236642,0
15669,-7.246109204101562,-6.993744140624999,-0.30027957763671875,52.24599236641222,3.9090496183206107,251.02627099236642,0
15694,-8.893319946289061,-5.564405749511718,-0.1733868896484375,58.58950381679389,-40.15201908396947,251.02627099236642,0
15719,-11.883677819824218,-5.284284155273437,0.34376066894531243,48.139122137404584,-35.205454198473284,241.81253053435114,0
15744,-12.101550170898438,-6.2922430541992185,1.6270527587890624,38.635305343511455,-16.686370229007633,199.0110038167939,0
15769,-12.513352856445312,-6.919523889160156,1.8401367065429686,27.574236641221376,4.168591603053436,141.7285610687023,0
15794,-13.571589990234376,-5.159785668945312,0.9111864624023437,29.20019083969466,-42.60240076335878,77.35451526717557,0
15819,-14.498146032714843,-5.023316174316406,1.1937022583007812,23.070419847328246,-68.13675190839695,7.659858778625954,0
15844,-13.444697302246094,-5.629049194335937,2.608675439453125,14.177290076335877,-52.442095419847334,-61.88212595419847,0
15869,-11.44314471435547,-5.717634655761718,3.3101765258789064,0.8948473282442748,-36.327591603053435,-122.82869083969466,0
15894,-11.40962589111328,-5.731999865722655,2.9510462768554686,-16.028816793893128,-54.686370229007636,-167.25617175572518,0
15919,-10.988246398925781,-6.320973474121093,2.895979638671875,-45.37996183206107,-58.434461832061075,-200.2332709923664,0
15945,-10.880507324218751,-6.069582299804687,2.170536535644531,-74.99828244274809,-45.258889312977104,-232.69128625954198,0
15970,-8.443210034179687,-7.6066597656249995,1.85210771484375,-84.69293893129772,-48.12911832061069,-249.24090458015266,0
15995,-6.621222570800781,-7.944242199707031,1.346931164550781,-72.8303435114504,-103.91537786259542,-249.24090458015266,0
16020,-6.6906544189453125,-7.0057151489257805,0.5664214233398437,-83.42576335877864,-113.90774427480916,-249.24090458015266,0
16045,-4.653188806152343,-5.887622973632812,0.2264447875976562,-103.25782442748093,-92.11385114503817,-249.24090458015266,0
16070,-1.9405583251953127,-5.827767932128905,0.2384157958984375,-112.87614503816795,-78.32759160305343,-249.24090458015266,0
16095,-0.650083630371094,-5.214852307128906,-0.8533401611328125,-116.47919847328245,-93.11385114503817,-249.24090458015266,0
16120,0.46082593994140586,-2.466308801269531,-1.3633051147460937,-135.12041984732824,-112.0298816793893,-249.24090458015266,0
16145,1.6531383666992179,-2.2819552734374997,-1.751165783691406,-154.81507633587788,-99.99934732824427,-249.24090458015266,0
16170,3.5708938964843746,-2.5572884643554685,-3.8077850097656247,-180.05171755725192,-43.94591221374046,-249.24090458015266,0
16195,4.2484529663085935,2.2382974609375,-3.5827300537109372,-193.83797709923664,15.618973282442749,-249.24090458015266,0
16220,4.126348681640624,4.833612060546875,-4.171703662109375,-179.21965648854962,-1.6711030534351146,-249.24090458015266,0
16245,5.886086901855468,2.745868212890625,-4.523651306152344,-173.05935114503816,17.89378244274809,-249.24090458015266,0
16270,4.835032373046874,4.1033805541992185,-3.5539996337890623,-164.83797709923664,79.39759923664123,-249.24090458015266,0
16296,5.912423120117187,8.561384045410154,-3.7024401367187494,-151.2807251908397,143.7411106870229,-249.24090458015266,0
16321,7.720045373535155,8.55180723876953,-3.4606257690429683,-118.19675572519084,141.3823320610687,-249.24090458015266,0
16346,10.504501904296873,7.311610778808594,-3.9610139160156246,-70.13568702290077,69.26019465648855,-244.20273664122138,0
16371,10.492530895996094,10.091278906249999,-2.8405275390624998,-25.17385496183206,-61.9001106870229,-196.05769847328244,0
16396,9.384015527343749,9.2102126953125,-2.371264013671875,-31.372328244274808,-53.60240076335878,-139.09586641221372,0
16421,10.5906931640625,10.510264196777342,-3.0129100585937496,-57.81507633587786,43.428133587786256,-78.49281297709923,0
16446,12.798147094726563,11.884535949707029,-3.8077850097656247,-58.37996183206107,50.305996183206105,-13.523347328244276,0
16471,12.553938525390624,11.398513012695311,-4.145367443847657,-39.868511450381675,14.229660305343511,45.98810305343512,0
16496,11.09586971435547,10.680252514648437,-3.6904691284179685,-16.288358778625952,9.382332061068702,92.82016412213741,0
16521,10.911516186523436,10.191835375976561,-3.580335852050781,-1.5937022900763358,44.260194656488544,130.15604198473284,0
16546,11.818918615722655,10.491110583496093,-3.6258256835937495,19.039885496183206,14.44340076335878,165.9346679389313,0
16571,10.842084338378907,10.80475100097656,-2.711240649414062,37.40629770992366,-34.999347328244276,208.63695801526717,0
16596,9.197267797851563,8.970792529296874,-2.3545046020507807,43.139122137404584,-22.060416030534352,249.6674923664122,0
16621,9.788635607910155,6.897413891601563,-2.8429217407226557,28.64293893129771,47.19149236641221,251.02627099236642,0
16646,10.006507958984376,7.184718090820312,-2.1773336791992186,32.475,23.031187022900763,251.02627099236642,0
16671,8.84771435546875,5.733831884765625,-1.8062324218749999,47.31469465648855,-13.9001106870229,251.02627099236642,0
16697,7.140648571777343,4.32604130859375,-1.3297862915039063,54.55896946564886,-12.090950381679388,251.02627099236642,0
16722,5.306690100097655,2.810511657714844,-0.5420939453125,58.84904580152672,-7.938278625954197,251.02627099236642,0
16747,3.736093811035156,0.7538924316406249,0.13067672119140625,39.765076335877865,35.794545801526716,251.02627099236642,0
16772,2.8526333984375,0.2870231079101562,-0.2308477294921875,18.940648854961832,41.97775190839695,251.02627099236642,0
16797,1.9260773559570312,-1.4990513305664062,-0.5660359619140625,10.910114503816793,10.313629770992367,251.02627099236642,0
16822,-0.08984044189453178,-2.6267203125,-0.17099268798828124,-5.379961832061069,8.985385496183206,251.02627099236642,0
16847,-1.7562047973632815,-3.7759371093749996,-0.08958983154296875,-25.66240458015267,21.183858778625954,251.02627099236642,0
16872,-2.8599317626953127,-4.115913745117187,-0.2763375610351563,-26.463931297709923,-10.358125954198472,251.02627099236642,0
16897,-3.18075478515625,-5.236400122070312,-0.41520125732421875,7.475,-114.5413320610687,251.02627099236642,0
16922,-6.506300891113281,-5.32019718017578,-0.4942099121093749,11.13148854961832,-56.327591603053435,251.02627099236642,0
16947,-7.47116416015625,-4.841356848144531,-0.666592431640625,8.215458015267176,-43.686370229007636,251.02627099236642,0
16972,-8.258856506347655,-6.055217089843749,-0.30985638427734374,19.597137404580153,-48.09858396946565,251.02627099236642,0
16997,-10.236467077636718,-5.7487592773437495,-0.8533401611328125,21.13148854961832,-10.24362213740458,251.02627099236642,0
17022,-10.03056573486328,-5.509339111328124,-1.3704877197265624,28.84141221374046,-4.945912213740458,228.484286259542,0
17047,-11.938744458007811,-4.568417858886718,-1.298661669921875,41.711641221374045,-9.808507633587785,202.39268320610688,0
17073,-11.634680847167967,-4.151826770019531,-0.29549117431640626,45.1162213740458,13.031187022900763,174.62169083969465,0
17098,-11.548489587402344,-4.5468700439453125,-0.2212709228515625,55.96354961832061,11.038820610687024,139.56062213740458,0
17123,-17.510051721191406,-6.850092041015625,3.4753764404296876,23.536068702290077,-73.8237748091603,-56.82105725190839,0
17148,-11.893254626464845,-4.589965673828124,1.6893020019531249,-17.82270992366412,-4.686370229007634,-84.27907251908397,0
17173,-9.939586071777343,-6.076764904785156,2.5153015747070313,-19.67767175572519,5.90904961832061,-97.40884351145039,0
17198,-10.76558564453125,-5.949872216796875,2.0364612426757813,-36.25019083969465,7.206759541984733,-104.37830916030534,0
17223,-10.99542900390625,-5.976208435058593,1.7730990600585936,-64.05171755725192,17.96248473282443,-110.17220229007633,0
17248,-11.270762194824218,-5.569194152832031,1.1793370483398435,-90.6776717557252,48.04645419847328,-129.97372900763358,0
17273,-11.141475305175781,-5.856498352050781,-0.3792882324218749,-98.8303435114504,66.16095801526718,-162.09586641221372,0
17298,-10.313081530761718,-6.112677929687499,-1.6649745239257812,-81.4104961832061,52.176225190839695,-206.52334732824428,0
17323,-9.611580444335937,-6.249147424316406,-2.373658215332031,-59.03645038167939,60.87851526717557,-249.24090458015266,0
17348,-7.569326428222656,-5.980996838378906,-2.7663072875976558,-32.49446564885496,78.50446946564885,-249.24090458015266,0
17373,-5.215826196289063,-5.035287182617187,-3.1158607299804686,-3.85324427480916,68.79454580152672,-249.24090458015266,0
17398,-3.4034155395507812,-4.501380212402343,-3.24275341796875,20.94828244274809,50.19912595419847,-249.24090458015266,0
17423,-1.8783090820312502,-4.036905090332031,-3.139802746582031,39.36812977099237,31.96248473282443,-249.24090458015266,0
17448,2.3953408813476553,-3.9650790405273435,-1.1717689819335937,49.5513358778626,18.42813358778626,-249.24090458015266,0
17474,3.1064187744140623,-2.679392749023437,-1.4782267944335936,63.65820610687023,10.741110687022902,-249.24090458015266,0
17499,3.898899523925781,-3.409624255371093,0.41558671875,49.475,122.3059961832061,-249.24090458015266,0
17524,4.667438256835937,-2.152668383789062,-2.134238049316406,58.22309160305343,181.74874427480916,-249.24090458015266,0
17549,5.330632116699218,1.35723125,-1.0257226806640625,60.200190839694656,206.3823320610687,-249.24090458015266,0
17574,7.114312353515625,4.879101892089843,0.4826243652343749,95.1696564885496,121.44340076335878,-249.24090458015266,0
17599,8.704062255859373,3.0403550170898437,2.0963162841796876,101.6429389312977,9.916683206106871,-249.24090458015266,0
17624,10.4374642578125,6.456880786132812,3.166524426269531,60.56660305343512,-14.785606870229007,-249.24090458015266,0
17649,9.10868233642578,3.796922741699219,1.5456499023437498,35.31469465648855,-34.16728625954199,-249.24090458015266,0
17674,10.693643835449219,3.9190270263671874,2.0747684692382813,26.02461832061069,-8.258889312977098,-249.24090458015266,0
17699,11.332895678710937,6.837558850097656,1.643812170410156,18.543702290076336,-21.716904580152672,-213.37830916030535,0
17724,12.00087794189453,6.614898095703125,1.6869078002929687,4.574236641221374,-21.159652671755726,-163.9355610687023,0
17749,10.696038037109375,7.309216577148438,1.2583457031249998,-10.71583969465649,24.61897328244275,-120.01189694656489,0
17774,10.861237951660154,7.747355480957031,0.9542820922851561,-10.379961832061069,32.122790076335875,-84.63785114503817,0
17799,10.442252661132812,9.112050427246093,1.1194820068359375,-14.433396946564885,45.87851526717557,-60.7065534351145,0
17825,10.37282081298828,9.454421264648436,1.1434240234375,-12.219656488549619,48.2678282442748,-30.966095419847328,0
17850,11.622594079589842,8.719401354980468,1.31580654296875,-2.5479007633587787,31.374698473282443,4.659858778625954,0
17875,11.83567802734375,9.768061682128906,1.9430873779296873,-9.479198473282443,16.24492748091603,52.385049618320615,0
17900,11.129388537597656,9.085714208984374,2.706837707519531,-20.79980916030534,10.504469465648855,113.71329389312977,0
17925,11.196426184082028,8.465615979003905,2.9701998901367186,-46.81507633587786,39.55027099236641,172.63695801526717,0
17950,12.163683654785157,8.331540686035154,2.9893535034179686,-65.05935114503818,0.4357671755725192,220.24764503816795,0
17975,11.038408874511717,8.626027490234375,2.773875354003906,-69.37996183206107,-83.23598854961831,251.02627099236642,0
18000,8.285076965332031,7.924526403808594,2.5536088012695313,-67.8303435114504,-110.01461450381679,251.02627099236642,0
18025,6.855738574218749,6.116904150390625,1.9287221679687498,-70.15858778625955,-81.68637022900764,251.02627099236642,0
18050,6.19733311767578,4.1033805541992185,1.33496015625,-66.76164122137405,-65.77033969465649,251.02627099236642,0
18075,5.0744525390624995,3.65566484375,1.4307282226562499,-66.12805343511451,-44.434461832061075,251.02627099236642,0
18100,3.994667590332031,1.7283325073242186,0.08997529296874998,-50.43339694656488,-65.36575954198473,251.02627099236642,0
18125,2.567723400878906,-0.9172603271484374,-0.17578109130859373,-53.31889312977099,-39.434461832061075,251.02627099236642,0
18150,2.5365987792968747,-1.1901993164062499,-0.3625288208007812,-61.1662213740458,-15.709270992366413,251.02627099236642,0
18175,0.9085416503906245,-2.868534680175781,-1.2914790649414063,-48.58606870229008,-36.47262977099237,251.02627099236642,0
18200,-0.6979676635742191,-4.154220971679687,-1.911577294921875,-44.47156488549618,-35.503164122137406,251.02627099236642,0
18226,-0.13054187011718765,-4.680945336914062,-1.8110208251953124,-32.234923664122135,-72.05278244274808,251.02627099236642,0
18251,-3.4297517578125003,-5.1286610473632805,-1.44231376953125,-26.34179389312977,-56.64820229007634,251.02627099236642,0
18276,-4.962040820312501,-4.501380212402343,-2.1509974609374996,-19.79980916030534,-36.23598854961833,251.02627099236642,0
18301,-7.231743994140625,-5.3345623901367185,-2.028893176269531,-13.441030534351146,-34.373393129770996,251.02627099236642,0
18326,-7.2173787841796875,-6.117466333007812,-1.8876352783203125,0.016984732824427473,-33.0527824427481,251.02627099236642,0
18351,-8.912473559570312,-5.681721630859374,-1.9857975463867186,2.7879770992366413,-4.823774809160305,251.02627099236642,0
18376,-9.11837490234375,-5.413571044921874,-2.067200402832031,11.986450381679388,-17.793240458015266,227.64459160305344,0
18401,-10.722490014648436,-5.724817260742187,-1.5835716674804687,24.223091603053437,-29.06804961832061,199.74382824427482,0
18426,-11.344982446289062,-5.530886926269531,-1.2052878051757812,24.772709923664124,-7.1214847328244275,168.01863740458015,0
18451,-11.342588244628907,-6.447866162109374,-1.1238849487304687,25.879580152671757,3.4510343511450383,134.94993511450383,0
18476,-11.043313037109375,-7.525256909179687,-1.040087890625,32.27652671755725,-22.098583969465647,101.09497328244275,0
18501,-15.340905017089842,-7.072752795410156,1.7802816650390623,8.436832061068703,-87.6940038167939,-55.866858778625954,0
18526,-11.160628918457032,-5.930718603515625,1.7276092285156248,-21.761641221374045,-14.594767175572517,-72.91266030534351,0
18551,-10.686576989746094,-6.170138769531249,1.39242099609375,-34.44103053435114,-13.350492366412213,-80.40120992366411,0
18576,-11.012188415527344,-6.864457250976562,1.2056732666015624,-57.555534351145035,13.206759541984733,-84.8592251908397,0
18602,-11.364136059570313,-6.998532543945312,-0.10395504150390625,-68.21965648854962,18.130423664122137,-103.78288931297709,0
18627,-12.613909326171875,-6.107889526367187,-1.8469338500976562,-63.173854961832056,13.40523282442748,-138.04243129770992,0
18652,-11.881283618164062,-5.820585327148437,-2.4837914916992183,-43.608969465648855,14.916683206106871,-183.99662977099237,0
18677,-10.444762622070312,-5.7679128906249995,-2.598713171386718,-14.555534351145038,13.351797709923664,-234.18746946564886,0
18702,-8.562920117187499,-5.832556335449218,-2.34253359375,10.032251908396946,9.458667938931299,-249.24090458015266,0
18727,-7.349059875488281,-5.6936926391601554,-2.3449277954101557,21.70400763358779,18.76401145038168,-249.24090458015266,0
18752,-5.036261071777344,-5.332168188476562,-1.988191748046875,27.688740458015268,29.58080534351145,-249.24090458015266,0
18777,-3.3076474731445313,-5.605107177734374,-2.0312873779296874,38.078053435114505,19.93195038167939,-249.24090458015266,0
18802,-0.7243038818359377,-5.758336083984375,-0.8653111694335938,52.35286259541985,-4.014614503816794,-249.24090458015266,0
18827,0.20943476562499974,-4.594754077148437,-1.0664241088867188,49.23835877862596,-22.686370229007633,-249.24090458015266,0
18852,1.114442993164062,-2.966696948242187,-0.63786201171875,30.032251908396947,-9.335225190839694,-249.24090458015266,0
18877,2.7855957519531245,-1.8102975463867186,-0.7695431030273437,18.29942748091603,-10.121484732824428,-249.24090458015266,0
18902,5.050510522460937,-2.0114104858398436,-1.0352994873046875,9.421564885496183,-25.006980916030535,-249.24090458015266,0
18927,5.8621448852539055,0.2630810913085937,-0.6929286499023437,-3.53263358778626,-48.6558358778626,-249.24090458015266,0
18952,5.158249597167968,1.3452602416992185,-0.580401171875,-21.05171755725191,-66.99934732824427,-249.24090458015266,0
18977,5.404852368164062,3.5000417358398437,-1.1669805786132812,-52.563167938931294,17.61897328244275,-249.24090458015266,0
19003,6.915593615722655,5.077820629882813,-1.241200830078125,-56.18148854961832,97.71057633587786,-249.24090458015266,0
19028,8.320989990234374,7.206265905761718,-2.0312873779296874,-19.86851145038168,38.76401145038167,-249.24090458015266,0
19053,8.984183850097654,9.021070764160156,-1.643426708984375,-3.3036259541984734,-10.953545801526717,-249.24090458015266,0
19078,8.929117211914061,9.5166705078125,-1.971432336425781,3.81087786259542,-18.274156488549618,-249.24090458015266,0
19103,10.992919042968747,9.691447229003906,-2.7423652709960935,-11.2043893129771,41.122790076335875,-219.1416679389313,0
19128,11.550768029785154,11.831863513183592,-1.6051194824218749,-5.219656488549619,30.09225572519084,-160.75235496183205,0
19153,12.245086511230468,10.967556713867186,-1.164586376953125,-0.7234732824427482,39.9472175572519,-88.40120992366411,0
19178,13.97370010986328,11.06093057861328,-0.6450446166992188,5.879580152671755,26.30599618320611,-10.26380534351145,0
19203,12.668860205078126,11.197400073242186,-0.42956646728515624,-0.5097328244274809,2.91668320610687,66.62932442748092,0
19228,11.443028955078123,10.479139575195312,-0.07522462158203125,-22.845610687022898,23.07698854961832,128.5758893129771,0
19253,11.122205932617188,9.588496557617185,0.13546512451171874,-41.784541984732826,33.39759923664122,176.33924809160305,0
19278,10.662519213867185,9.078531604003905,0.30545344238281247,-52.27309160305343,25.038820610687022,209.27817938931298,0
19303,10.435070056152341,8.345905895996093,0.42995192871093746,-56.105152671755725,5.741110687022902,233.59115648854961,0
19328,9.029673681640624,7.586943969726562,0.8273894042968749,-48.44103053435114,-28.75507251908397,251.02627099236642,0
19353,8.09354083251953,6.013953479003906,0.2982708374023437,-51.25782442748091,-18.56423282442748,251.02627099236642,0
19378,8.105511840820313,5.137675671386718,0.5424794067382812,-65.13568702290077,8.702942748091603,251.02627099236642,0
19403,7.669767138671873,4.97726416015625,0.5472678100585937,-59.15858778625954,-36.80087404580153,251.02627099236642,0
19429,6.587587988281249,2.573485693359375,-0.0393115966796875,-49.044083969465646,-72.39629389312977,251.02627099236642,0
19454,5.55329287109375,1.6780542724609373,0.042091259765625,-42.65477099236641,-73.02224809160305,251.02627099236642,0
19479,4.214934143066405,0.3732143676757812,0.10673470458984374,-30.883778625954196,-79.73217175572519,251.02627099236642,0
19504,3.755247424316406,-0.5054576416015625,-0.9491082275390624,-35.06698473282442,-46.938278625954204,251.02627099236642,0
19529,1.6770803833007806,-2.090419140625,-1.183739990234375,-21.196755725190837,-74.02224809160305,251.02627099236642,0
19554,-0.6979676635742191,-2.4160305664062496,-1.5404760375976563,-14.70057251908397,-63.304690839694665,251.02627099236642,0
19579,-1.9214047119140627,-6.897976074218749,-1.8876352783203125,-21.692938931297707,-14.800874045801525,251.02627099236642,0
19604,-2.919786804199219,-3.579612573242187,-1.8852410766601562,-24.51736641221374,-3.129118320610687,251.02627099236642,0
19629,-3.379473522949219,-5.916353393554687,-1.6553977172851562,-12.899045801526718,-32.76270610687023,251.02627099236642,0
19654,-4.528690319824219,-4.649820715332031,-2.3161973754882808,-5.280725190839695,-61.49553053435115,251.02627099236642,0
19679,-7.339483068847656,-5.53806953125,-2.347321997070312,10.345229007633588,-90.5031641221374,251.02627099236642,0
19704,-8.608409948730468,-7.130213635253906,-2.299437963867187,12.749809160305343,-55.48789694656489,251.02627099236642,0
19729,-8.737696838378906,-5.743970874023437,-1.9977685546875,10.696374045801527,-30.11385114503817,251.02627099236642,0
19754,-11.141475305175781,-5.964237426757812,-2.462243676757812,19.7956106870229,-37.48026335877863,251.02627099236642,0
19779,-12.716859997558593,-5.159785668945312,-1.6338499023437498,27.742175572519084,-33.54133206106871,211.88886641221373,0
19804,-13.698482678222657,-6.18210977783203,-1.5955426757812499,38.93301526717558,0.13042366412213746,153.88886641221373,0
19830,-14.3856185546875,-5.439907263183593,-1.7248295654296875,55.68874045801527,-18.251255725190838,84.14840839694656,0
19855,-14.273091076660155,-4.2667484497070305,-0.30506798095703125,48.84141221374046,-63.84667557251908,-68.41647709923664,0
19880,-13.099932263183593,-5.188516088867187,1.0332907470703123,36.37576335877863,-54.46499618320611,-125.5538816793893,0
19905,-12.113521179199218,-5.001768359374999,1.6749367919921874,15.894847328244275,-45.816141221374046,-168.37067557251908,0
19930,-11.105562280273436,-5.887622973632812,1.804223681640625,-6.868511450381679,-39.197820610687025,-202.7981564885496,0
19955,-10.473493041992187,-5.906776586914062,0.8633024291992186,-28.189122137404578,-28.846675572519082,-227.46227862595418,0
19980,-9.537360192871095,-6.2539358276367185,0.2264447875976562,-36.08225190839695,-22.800874045801525,-249.24090458015266,0
20005,-7.526230798339844,-7.067964392089843,0.08039848632812499,-29.01354961832061,-30.274156488549618,-249.24090458015266,0
20030,-6.192660473632813,-7.259500524902343,-0.36013461914062495,-25.891412213740455,-18.800874045801525,-249.24090458015266,0
20055,-4.210261499023438,-7.37681640625,-0.245212939453125,-25.563167938931297,2.0922557251908396,-249.24090458015266,0
20080,-3.69790234375,-6.522086413574218,-0.79109091796875,-29.128053435114502,38.3823320610687,-249.24090458015266,0
20105,-1.914222106933594,-5.686510034179687,-0.8150329345703125,-28.311259541984732,64.22202671755726,-249.24090458015266,0
20130,1.4520254272460935,-5.698481042480468,-0.4032302490234375,-10.578435114503817,33.52737022900763,-249.24090458015266,0
20155,2.828691381835937,-5.1286610473632805,-1.1143081420898437,1.4673664122137404,-28.03751526717557,-249.24090458015266,0
20180,2.627578442382812,-2.9092361083984373,-1.5716006591796874,-17.815076335877862,-22.686370229007633,-249.24090458015266,0
20206,3.8151024658203117,-3.555670556640625,-0.8988299926757812,-33.67767175572519,5.847980916030535,-249.24090458015266,0
20231,6.003402783203124,-1.8725467895507812,-0.781514111328125,-28.227290076335876,-4.190187022900764,-249.24090458015266,0
20256,4.538151367187499,1.1465415039062499,-1.4782267944335936,-44.25019083969465,37.130423664122134,-249.24090458015266,0
20281,6.170996899414061,3.29174619140625,-0.9634734375,-48.62423664122137,79.37469847328245,-249.24090458015266,0
20306,7.427952770996092,2.312517712402344,-1.068818310546875,-27.83034351145038,88.94721755725192,-249.24090458015266,0
20331,7.870880078124999,1.970146875,-1.2483834350585936,-4.295992366412214,81.46630152671756,-249.24090458015266,0
20356,7.511749829101562,8.381818920898436,0.6166996582031249,7.253625954198473,20.725843511450382,-249.24090458015266,0
20381,7.02093848876953,8.154369763183592,0.7459865478515624,-0.01354961832061069,0.42813358778625965,-249.24090458015266,0
20406,8.239587133789062,6.851924060058593,-0.6737750366210937,-18.68530534351145,31.43576717557252,-249.24090458015266,0
20431,8.134242260742187,8.554201440429686,0.11152310791015624,-31.425763358778624,101.72584351145039,-233.67601908396946,0
20456,7.3441557128906245,9.660322607421874,1.2511630981445312,-11.990648854961833,94.27546183206107,-200.71418702290077,0
20481,7.162196386718748,10.151133947753905,1.0979341918945311,10.665839694656489,72.4586679389313,-152.71418702290077,0
20506,9.798212414550779,10.299574450683592,1.7778874633789061,20.749809160305343,59.28309541984733,-102.50808015267175,0
20531,8.61787099609375,12.066495275878905,2.3046118286132815,33.24599236641222,-10.640568702290075,-52.431744274809155,0
20556,8.033685791015625,11.082478393554686,2.218420568847656,8.7956106870229,5.481568702290076,0.5758893129770992,0
20581,8.696879650878905,11.07290158691406,2.570368212890625,-21.066984732824427,36.14569083969465,49.49191984732825,0
20607,9.565974853515623,10.718559741210937,3.037237536621094,-36.83034351145038,8.840347328244276,94.07970610687023,0
20632,8.68012023925781,9.691447229003906,2.8983738403320314,-47.82270992366412,-17.816141221374046,135.6674923664122,0
20657,7.80623663330078,8.635604296874998,2.9678056884765627,-67.67003816793894,12.512103053435116,171.8201641221374,0
20682,8.768705700683594,8.082543713378906,3.2742635009765624,-91.70820610687024,51.64187404580152,199.81253053435114,0
20707,9.463024182128905,8.721795556640624,3.741132824707031,-90.57080152671756,-6.71690458015267,227.75909541984734,0
20732,8.574775366210936,7.948468420410156,3.0731505615234376,-94.25019083969467,-39.686370229007636,251.02627099236642,0
20757,7.147831176757811,5.523142138671875,3.010901318359375,-100.68530534351146,-27.777973282442748,251.02627099236642,0
20782,7.035303698730467,4.13450517578125,2.9462578735351563,-125.94484732824428,44.54263740458015,251.02627099236642,0
20807,6.609135803222656,5.0227539916992185,3.8416892944335936,-145.08225190839696,49.97011832061068,251.02627099236642,0
20832,5.742434802246094,4.462510803222656,2.6230406494140626,-201.21965648854962,125.26782824427481,251.02627099236642,0
20857,5.151066992187499,2.0826743530273437,2.7786637573242188,-206.41812977099238,41.069354961832055,251.02627099236642,0
20882,4.7679947265625,-1.6810106567382812,3.2670808959960937,-172.45629770992366,-89.44209541984732,251.02627099236642,0
20907,4.255635571289062,-3.282731567382812,0.9806183105468749,-135.2425572519084,-171.8085076335878,251.02627099236642,0
20932,2.287601806640625,-1.8342395629882813,1.133847216796875,-122.06698473282444,-127.04514885496184,251.02627099236642,0
20957,1.6196195434570306,-4.544475842285156,1.1865196533203124,-65.41812977099237,-220.19782061068702,251.02627099236642,0
20982,-0.015620190429687764,-7.182886071777343,-0.7384184814453125,-63.295992366412214,-126.58713358778627,251.02627099236642,0
21007,-0.015620190429687764,-6.136619946289062,-0.992203857421875,-74.12041984732825,-81.51079770992366,251.02627099236642,0
21033,-1.789723620605469,-5.772701293945312,-1.74877158203125,-56.7692748091603,-132.58713358778627,251.02627099236642,0
21058,-3.2932822631835936,-5.9929678466796865,-1.7703193969726563,-38.32652671755725,-165.08331679389312,251.02627099236642,0
21083,-4.4951714965820315,-7.383999011230468,-1.6051194824218749,-12.738740458015268,-175.35812595419847,251.02627099236642,0
21108,-6.671500805664063,-6.797419604492187,-1.6146962890624998,-7.608969465648855,-144.6940038167939,251.02627099236642,0
21133,-7.325117858886719,-6.038457678222656,-1.4542847778320311,31.742175572519084,-197.02988167938932,251.02627099236642,0
21158,-10.143093212890625,-6.1438025512695305,-0.9323488159179687,32.91011450381679,-139.15201908396946,241.53008778625954,0
21183,-9.443986328125,-6.711228344726562,-0.3385868041992187,12.13148854961832,-39.80087404580153,211.53008778625954,0
21208,-11.064860852050781,-5.102324829101562,-0.7384184814453125,5.620038167938931,-19.816141221374046,172.8965,0
21233,-11.99859949951172,-4.985008947753906,-0.3266157958984375,12.345229007633588,-39.877209923664125,125.96520229007633,0
21258,-13.054442431640624,-5.624260791015624,0.137859326171875,8.726908396946564,-16.26652290076336,66.63695801526718,0
21283,-13.066413439941407,-6.809390612792968,0.674160498046875,-0.8685114503816794,46.176225190839695,-6.042431297709924,0
21308,-12.690523779296875,-7.106271618652343,0.12109991455078123,14.574236641221374,30.840347328244274,-88.1035,0
21333,-12.76953243408203,-6.799813806152343,-0.4630852905273437,25.925381679389314,7.512103053435114,-163.41647709923663,0
21358,-11.325828833007812,-6.318579272460937,-0.2883085693359375,25.50553435114504,-1.060416030534351,-220.05006488549617,0
21383,-8.457575244140624,-6.672921118164062,0.020543444824218743,35.34522900763359,-40.89247709923664,-249.24090458015266,0
21408,-8.03858995361328,-7.594688757324218,-0.31943319091796873,38.16965648854962,-101.70927099236641,-249.24090458015266,0
21434,-6.994718029785156,-7.21640489501953,0.2479926025390625,12.253625954198473,-66.20545419847328,-249.24090458015266,0
21459,-4.856695947265625,-6.905158679199218,0.8297836059570312,-7.9524809160305345,-42.251255725190845,-249.24090458015266,0
21484,-2.5247435302734376,-6.7231993530273435,0.8824560424804687,-12.219656488549619,-47.28179007633588,-249.24090458015266,0
21509,-1.6628309326171877,-5.4997623046875,0.2862998291015625,-35.62423664122137,21.512103053435116,-249.24090458015266,0
21534,-0.6548720336914065,-4.52292802734375,0.6693720947265624,-41.21202290076336,61.51210305343511,-249.24090458015266,0
21559,2.345062646484375,-3.270760559082031,-0.06085941162109375,-32.72347328244275,98.56553816793894,-249.24090458015266,0
21584,3.4631548217773434,-5.626654992675781,-0.8054561279296875,2.13912213740458,4.886148854961832,-249.24090458015266,0
21609,1.6435615600585933,-2.322656701660156,-0.13268546142578125,-19.01354961832061,77.14569083969467,-249.24090458015266,0
21634,4.535757165527343,0.7275562133789062,0.5329026000976562,-16.372328244274808,140.8937824427481,-249.24090458015266,0
21659,3.692998181152343,5.556660961914062,0.9758299072265624,38.42919847328245,-19.213087786259543,-249.24090458015266,0
21684,4.562093383789062,9.538218322753904,0.010966638183593745,14.95591603053435,-21.77033969465649,-249.24090458015266,0
21709,9.51090821533203,6.550254650878906,1.174548645019531,25.032251908396947,-113.51843129770992,-249.24090458015266,0
21734,8.055233605957032,7.58215556640625,-0.23803033447265623,-2.2120229007633587,-126.93827862595418,-249.24090458015266,0
21759,9.242757629394529,8.108879931640624,-0.81024453125,-32.227290076335876,-65.5413320610687,-249.24090458015266,0
21784,9.343314099121091,8.058601696777343,-1.8158092285156249,-21.952480916030535,-79.5413320610687,-202.88212595419847,0
21809,10.11185283203125,10.208594787597654,-2.222823510742187,-52.525,80.22966030534351,-152.81342366412213,0
21834,11.505278198242188,10.232536804199217,-2.4478784667968747,-23.257824427480916,26.95485114503817,-109.41647709923664,0
21859,11.160513159179686,10.862211840820311,-1.1550095703125,-7.86851145038168,6.954851145038168,-66.82869083969466,0
21885,10.935458203124998,10.507869995117186,-0.7863025146484375,-9.471564885496184,33.87088167938931,-15.324874045801526,0
21910,11.83567802734375,10.565330834960935,-1.4614673828125,-0.9982824427480915,-14.739805343511449,34.003370229007636,0
21935,11.823707019042967,9.792003698730467,-1.4111891479492187,4.070419847328244,-52.068049618320615,77.94230152671756,0
21960,10.018478967285155,8.817563623046874,-0.8557343627929688,10.14675572519084,-52.571866412213744,123.81253053435115,0
21985,10.46380047607422,7.687500439453125,-1.3202094848632813,-9.318893129770993,36.71057633587786,173.37741603053436,0
22010,11.536402819824218,8.190282788085936,-1.32739208984375,-13.761641221374045,39.58843893129771,228.2552786259542,0
22035,10.40394543457031,8.427308752441405,-0.5253345336914063,-0.3188931297709924,-4.823774809160305,251.02627099236642,0
22060,8.11269444580078,6.914173303222656,-0.6450446166992188,10.406297709923663,-4.793240458015267,251.02627099236642,0
22085,8.237192932128906,4.953322143554687,-0.321827392578125,11.81851145038168,20.214393129770993,251.02627099236642,0
22110,8.105511840820313,4.936562731933594,-0.8054561279296875,19.13148854961832,7.847980916030535,251.02627099236642,0
22135,5.847779675292968,4.345194921875,0.252781005859375,30.887213740458016,-25.434461832061068,251.02627099236642,0
22160,3.846227087402343,1.7570629272460936,0.3270012573242187,33.436832061068706,-17.213087786259543,251.02627099236642,0
22186,3.8318618774414057,0.28223470458984373,-0.0967724365234375,15.97881679389313,22.748744274809162,251.02627099236642,0
22211,1.6244079467773433,-2.1263321655273435,-0.18535789794921875,-41.15858778625954,146.3288969465649,251.02627099236642,0
22236,0.9540314819335936,-3.7998791259765623,0.252781005859375,-100.05935114503818,215.1227900763359,251.02627099236642,0
22261,0.26928980712890604,-6.605883471679687,1.6605715820312499,-134.45629770992366,201.58080534351146,251.02627099236642,0
22286,2.136767102050781,-6.055217089843749,0.12588831787109375,-178.4104961832061,207.35943129770993,251.02627099236642,0
22311,-0.18082010498046897,-7.084723803710937,0.5329026000976562,-179.26545801526717,93.33653053435116,251.02627099236642,0
22336,0.3123854370117183,-5.722423059082031,-1.2938732666015624,-162.74637404580153,-12.442095419847329,250.78962977099238,0
22361,-1.8998568969726564,-7.652149597167968,-0.6689866333007812,-71.73874045801527,-243.77797328244273,247.18657633587787,0
22386,-5.3403246826171875,-7.723975646972655,-1.490197802734375,-31.937213740458013,-248.71690458015266,246.53008778625954,0
22411,-7.466375756835937,-7.484555480957031,-2.3784466186523434,-42.08988549618321,-160.48026335877861,245.72092748091603,0
22436,-7.231743994140625,-7.022474560546875,-2.162968469238281,6.505534351145037,-213.99934732824428,243.19420992366412,0
22461,-8.725725830078126,-7.917905981445311,-1.9355193115234375,-18.63187022900763,-70.24362213740457,221.8201641221374,0
22486,-9.5589080078125,-6.895581872558593,-1.7559541870117186,-6.013549618320611,-67.8237748091603,193.13314122137405,0
22511,-9.889307836914062,-6.857274645996093,-1.7080701538085936,-6.318893129770993,-24.640568702290075,159.2705458015267,0
22536,-9.70495430908203,-5.497368103027343,-1.4566789794921875,11.192557251908397,-47.6558358778626,126.27817938931298,0
22561,-10.308293127441406,-6.320973474121093,-0.5396997436523437,34.772709923664124,-86.11385114503817,92.36214885496183,0
22586,-10.157458422851562,-6.941071704101562,0.18334915771484372,19.66583969465649,-6.594767175572519,50.85833206106871,0
22612,-11.043313037109375,-6.146196752929687,-0.321827392578125,22.757442748091606,-14.037515267175571,14.606423664122136,0
22637,-11.25639698486328,-6.759112377929687,-0.2212709228515625,20.184923664122138,-11.999347328244275,-25.57678244274809,0
22662,-10.253226489257813,-7.915511779785155,1.2703167114257812,16.933015267175573,1.038820610687023,-70.28670610687023,0
22687,-10.442368420410155,-7.247529516601562,0.7866879760742187,10.230725190839694,3.435767175572519,-111.78288931297709,0
22712,-10.777556652832033,-7.4917380859375,0.28151142578125,2.4826335877862595,-21.373393129770992,-154.24090458015266,0
22737,-11.21330135498047,-6.895581872558593,-0.398441845703125,-10.86087786259542,-31.724538167938928,-191.7981564885496,0
22762,-9.38652548828125,-7.652149597167968,-0.4726620971679687,-11.960114503816794,-54.9764465648855,-232.46991221374046,0
22787,-7.6483350830078125,-7.965790014648436,-0.18535789794921875,-4.998282442748092,-79.41156106870228,-249.24090458015266,0
22812,-6.918103576660156,-7.927482788085936,-0.00818697509765625,-10.899045801526718,-51.28179007633588,-249.24090458015266,0
22837,-6.089709802246094,-6.730381958007812,0.042091259765625,-18.234923664122135,-5.022248091603053,-249.24090458015266,0
22862,-4.454470068359375,-6.287454650878906,-0.3936534423828125,-20.608969465648855,56.3441641221374,-249.24090458015266,0
22887,-1.6221295043945314,-5.2603421386718745,-0.3577404174804687,-6.822709923664123,65.25256106870229,-249.24090458015266,0
22912,-0.13054187011718765,-5.040075585937499,-0.8700995727539063,19.894847328244275,2.1991259541984736,-249.24090458015266,0
22937,1.6842629882812492,-4.695310546875,-0.08958983154296875,32.06278625954199,-57.47262977099237,-249.24090458015266,0
22962,1.2030284545898433,-4.3026614746093745,0.22883898925781246,8.894847328244275,-27.213087786259543,-249.24090458015266,0
22987,1.7728484497070305,-2.413636364746093,-1.1909225952148437,-18.280725190839693,58.13805725190839,-249.24090458015266,0
23013,3.956360363769531,-0.42884318847656255,-0.6258910034179688,-36.860877862595416,162.50446946564887,-249.24090458015266,0
23038,7.528509240722655,0.8352952880859374,1.5169194824218748,0.5895038167938931,120.20675954198474,-249.24090458015266,0
23063,4.416047082519531,3.8711429931640624,0.9854067138671874,41.024618320610685,-33.3352251908397,-249.24090458015266,0
23088,5.014597497558593,6.921355908203124,0.6047286499023437,-0.5020992366412214,48.57317175572519,-249.24090458015266,0
23113,9.623435693359372,4.6468643310546875,0.34376066894531243,-12.189122137404581,94.5350038167939,-249.24090458015266,0
23138,9.022491076660156,7.852700354003906,1.2008848632812499,15.520801526717557,8.351797709923664,-249.24090458015266,0
23163,9.798212414550779,9.140780847167967,3.3293301391601564,28.13912213740458,-129.41919465648854,-249.24090458015266,0
23188,9.484571997070312,6.248585241699218,2.5224841796875,-24.059351145038168,-13.40392748091603,-206.80579007633588,0
23213,10.540414929199219,9.449632861328125,2.0388554443359377,-49.746374045801524,87.73347709923665,-139.48517938931298,0
23238,13.233891796875,10.685040917968749,1.7443686401367187,-36.66240458015267,28.397599236641224,-76.53861450381679,0
23263,11.895533068847655,10.560542431640624,1.653388977050781,-21.31889312977099,-33.60240076335878,-22.080599236641223,0
23288,11.454999963378906,10.79277999267578,1.6869078002929687,-24.70820610687023,-13.9001106870229,31.476652671755726,0
23313,12.609005163574217,9.672293615722655,1.1314530151367186,-19.257824427480916,-29.503164122137402,78.87359923664123,0
23338,11.869196850585936,8.906149084472656,1.0404733520507812,-14.36469465648855,-60.869576335877866,126.91176717557252,0
23363,10.454223669433592,8.566172448730468,1.4067862060546874,-21.219656488549617,-45.42682824427481,178.59115648854961,0
23388,10.8205365234375,7.752143884277343,1.9191453613281249,-39.83797709923664,14.77164503816794,228.77436259541986,0
23413,11.414298535156249,7.859882958984374,1.8568961181640624,-42.76164122137404,-10.587133587786258,251.02627099236642,0
23439,9.266699645996091,8.104091528320312,2.280669812011719,-49.08225190839695,-27.594767175572517,251.02627099236642,0
23464,8.11269444580078,5.6787652465820315,2.170536535644531,-54.234923664122135,-17.40392748091603,251.02627099236642,0
23489,8.244375537109374,4.9293801269531246,1.3110181396484375,-58.18148854961832,-23.152019083969464,251.02627099236642,0
23514,6.386475048828124,4.857554077148437,1.7132440185546873,-40.31889312977099,-70.85430916030533,251.02627099236642,0
23539,4.571670190429687,1.3237124267578124,0.7220445312499999,-36.921946564885495,-56.9764465648855,251.02627099236642,0
23564,3.3075317138671867,-1.4655325073242187,0.04927386474609374,-35.85324427480916,-41.46499618320611,251.02627099236642,0
23589,1.4161124023437495,-2.7105173706054684,-0.3385868041992187,-46.914312977099236,-0.3046908396946564,251.02627099236642,0
23614,0.7337649291992183,-4.355333911132812,-0.5277287353515625,-75.51736641221375,53.993019083969465,251.02627099236642,0
23639,-1.4234107666015627,-3.404835852050781,-0.6139199951171875,-85.28835877862596,21.54263740458015,251.02627099236642,0
23664,-2.8599317626953127,-4.513351220703124,-0.8533401611328125,-60.37996183206107,-70.74743893129771,251.02627099236642,0
23689,-3.9660529296875,-5.818191125488281,-0.992203857421875,-57.63187022900763,-48.49553053435115,251.02627099236642,0
23714,-5.278075439453125,-5.238794323730469,-2.0791714111328123,-55.02881679389313,-52.31232442748092,251.02627099236642,0
23739,-7.04978466796875,-4.834174243164062,-1.2004994018554687,-19.99064885496183,-134.3886603053435,251.02627099236642,0
23764,-9.47511094970703,-6.35449229736328,-1.3393630981445312,-25.36469465648855,-49.52606488549618,251.02627099236642,0
23789,-8.752062048339845,-6.2371764160156244,-1.6697629272460937,-24.49446564885496,-16.73217175572519,251.02627099236642,0
23814,-10.42082060546875,-5.040075585937499,-1.8900294799804687,-29.074618320610686,9.985385496183207,231.20947709923664,0
23840,-11.294704211425781,-5.554828942871093,-1.4830151977539061,-28.532633587786258,9.305996183206107,200.8048969465649,0
23865,-12.314634118652343,-5.068806005859375,-1.3848529296874998,-29.33416030534351,25.809812977099238,156.7667290076336,0
23890,-16.868405676269532,-4.757559790039062,-1.9738265380859374,25.01698473282443,-36.823774809160305,-31.622583969465648,0
23915,-12.676158569335936,-4.826991638183594,0.3772794921875,-11.265458015267177,-29.88484351145038,-90.60731679389313,0
23940,-11.239637573242188,-5.9929678466796865,0.8130241943359374,-9.53263358778626,-10.686370229007633,-121.97372900763358,0
23965,-10.985852197265626,-6.280272045898437,0.0564564697265625,-28.387595419847326,-2.3046908396946564,-146.73708778625954,0
23990,-10.404061193847657,-7.25471212158203,-0.8317923461914062,-37.70057251908397,-13.869576335877863,-179.2714389312977,0
24015,-10.4016669921875,-7.309778759765624,-1.5045630126953125,-44.608969465648855,-10.785606870229007,-220.39357633587787,0
24040,-8.629957763671875,-7.3432975830078115,-1.7918672119140624,-45.67003816793893,22.12279007633588,-249.24090458015266,0
24065,-7.50947138671875,-6.943465905761718,-2.1031134277343746,-37.83797709923664,48.37469847328244,-249.24090458015266,0
24090,-5.584533251953125,-6.802208007812499,-2.6633566162109372,-18.227290076335876,36.05408778625954,-249.24090458015266,0
24115,-4.861484350585938,-6.744747167968749,-3.0416404785156246,-6.891412213740458,46.38996564885496,-249.24090458015266,0
24140,-3.1639953735351565,-5.432724658203124,-2.7232116577148435,14.177290076335877,10.11515648854962,-249.24090458015266,0
24165,-1.0690689208984379,-5.751153479003905,-2.352110400390625,18.85667938931298,53.64187404580152,-249.24090458015266,0
24190,0.42491291503906226,-3.426383666992187,-2.0217105712890624,35.268893129770994,45.313629770992364,-249.24090458015266,0
24215,1.7896078613281245,-3.7352356811523433,-1.8182034301757812,33.96354961832061,84.84034732824428,-249.24090458015266,0
24241,3.300349108886718,-1.1638630981445313,-1.8349628417968749,36.7956106870229,131.3441641221374,-249.24090458015266,0
24266,6.202121520996093,-0.9699327636718749,-1.2340182250976561,66.1696564885496,68.05408778625954,-249.24090458015266,0
24291,4.952348254394531,2.41067998046875,-1.262748645019531,66.23835877862595,12.260194656488551,-249.24090458015266,0
24316,5.577234887695313,4.531942651367188,-0.41520125732421875,36.62003816793893,53.97775190839695,-249.24090458015266,0
24341,7.521326635742187,3.90466181640625,-0.072830419921875,40.86431297709924,3.351797709923664,-249.24090458015266,0
24366,8.392816040039062,4.2733688720703125,-0.6689866333007812,28.558969465648858,-29.05278244274809,-249.24090458015266,0
24391,7.995378564453124,5.278933569335937,-0.01776378173828125,6.329961832061068,-16.167286259541985,-249.24090458015266,0
24416,7.942706127929687,6.2988634765625,0.4682591552734374,-1.2730916030534352,15.657141221374046,-249.24090458015266,0
24441,7.0233326904296876,7.709048254394531,-0.40083604736328127,-10.234923664122137,79.29836259541985,-249.24090458015266,0
24466,9.544427038574216,8.535047827148436,0.4922011718749999,-13.998282442748092,138.88614885496185,-232.4775458015267,0
24491,10.389580224609375,10.92685528564453,1.1984906616210937,22.650572519083973,40.51210305343511,-187.79052290076336,0
24516,9.508514013671874,10.436043945312498,0.7340155395507811,32.96354961832061,-27.556599236641222,-131.6149503816794,0
24541,9.834125439453125,10.62039747314453,1.2942587280273437,4.917748091603053,18.14569083969466,-65.20273664122136,0
