t_ms,ax,ay,az,gx,gy,gz,label
0,6.925170422363281,0.1266115966796875,1.3110181396484375,3.230725190839695,28.73347709923664,7.003370229007634,0
25,7.0831877319335925,-0.09844335937500001,1.2942587280273437,-3.6624045801526717,38.90141603053435,4.415583969465649,0
50,6.903622607421874,0.4977128540039062,1.3876325927734374,-5.547900763358779,29.96248473282443,-1.0729656488549617,0
75,7.5141440307617176,0.696431591796875,0.9901951171874999,6.131488549618321,-17.060416030534352,-10.141667938931299,0
100,8.474218896484373,-0.3426519287109375,1.9454815795898437,-0.9219465648854962,13.000652671755725,-28.30197328244275,0
125,6.417599670410156,-0.026617309570312497,2.23517998046875,15.925381679389313,-17.19782061068702,-36.09586641221374,0
150,7.310636889648436,0.26547529296874994,1.9047801513671874,12.864312977099237,2.687675572519084,-34.59968320610687,0
175,7.164590588378906,0.3373013427734375,2.4338987182617187,16.94828244274809,-8.831408396946564,-25.1035,0
200,7.413587561035155,0.36124335937499996,2.4865711547851563,8.169656488549618,19.0998893129771,-10.187469465648855,0
225,7.787083020019531,0.8688141113281249,2.436292919921875,-6.906679389312978,53.64187404580152,3.614057251908397,0
250,7.858909069824217,0.9717647827148437,2.6900782958984375,-6.166221374045802,30.38996564885496,11.56062213740458,0
275,8.179732092285157,0.5096838623046874,2.8600666137695314,-10.738740458015268,28.489202290076335,16.27054580152672,0
300,7.9858017578124985,0.9334575561523437,2.80978837890625,-14.639503816793894,19.160958015267177,17.094973282442748,0
325,8.239587133789062,0.9166981445312499,3.0827273681640626,-17.64713740458015,10.75637786259542,13.003370229007633,0
350,7.475836804199218,0.6605185668945311,3.279051904296875,-15.71583969465649,11.466301526717558,4.7972633587786255,0
375,6.896440002441406,0.4019447875976562,3.1401882080078125,-14.845610687022901,18.351797709923666,-2.6149503816793893,0
401,6.702509667968749,0.26068688964843745,2.5727624145507813,-7.555534351145038,10.779278625954198,-8.75998854961832,0
426,6.697721264648437,0.31575352783203126,2.4506581298828127,4.070419847328244,-0.793240458015267,-13.363041984732824,0
451,6.793489331054686,0.4833476440429687,2.3860146850585937,15.085687022900762,-8.793240458015267,-14.324874045801527,0
476,6.889257397460937,0.3875795776367187,1.8688671264648435,19.184923664122138,-7.251255725190839,-10.210370229007633,0
501,7.078399328613281,0.6054519287109374,2.2256031738281252,13.169656488549618,12.74874427480916,-2.202736641221374,0
526,7.475836804199218,0.5384142822265625,2.5009363647460936,9.497900763358778,16.527370229007634,4.8965,0
551,7.178955798339843,0.8616315063476562,2.8409130004882814,4.245992366412214,22.176225190839695,6.5682557251908396,0
576,7.4566831909179685,0.41630999755859377,2.77148115234375,1.7956106870229007,21.695309160305342,4.759095419847328,0
601,7.272329663085936,0.4330694091796875,2.77148115234375,1.6353053435114502,10.305996183206107,1.1865763358778625,0
626,7.1574079833984365,0.48574184570312495,2.991747705078125,-0.5555343511450382,1.0998893129770995,-2.019530534351145,0
651,7.147831176757811,0.41870419921875,2.9845651000976563,-2.425763358778626,-3.900110687022901,-4.5233473282442755,0
676,7.145436975097655,0.49531865234374994,3.0132955200195313,-4.914312977099237,-2.556599236641221,-6.004263358778626,0
701,7.23881083984375,0.8759967163085937,3.128217199707031,-6.570801526717558,-0.12911832061068695,-6.9737290076335885,0
726,7.389645544433592,1.0148604125976561,3.030054931640625,-6.631870229007634,0.8174465648854963,-8.332507633587786,0
751,7.4399237792968735,0.9645821777343749,2.934286865234375,-2.540267175572519,-4.663469465648856,-9.12640076335878,0
776,7.399222351074218,0.8233242797851562,2.8720376220703123,-0.18148854961832062,0.008286259541984808,-8.958461832061069,0
802,7.341761511230469,0.8831793212890624,2.8313361938476564,0.5055343511450382,4.519736641221375,-6.958461832061069,0
827,7.365703527832031,0.7850170532226561,2.9462578735351563,0.574236641221374,7.214393129770993,-3.1569351145038165,0
852,7.147831176757811,0.6269997436523437,2.9031622436523437,-1.3188931297709923,13.993019083969466,0.2552786259541985,0
877,7.131071765136718,0.6533359619140624,3.233562072753906,-4.563167938931298,20.7411106870229,2.1407748091603054,0
902,7.313031091308592,1.098657470703125,3.2072258544921874,-2.425763358778626,6.542637404580153,2.995736641221374,0
927,7.336973107910155,0.581509912109375,3.23116787109375,-1.1204198473282445,-4.923011450381679,5.621690839694656,0
952,7.143042773437499,0.7419214233398437,3.1593418212890625,-3.425763358778626,0.04645419847328247,7.148408396946564,0
977,7.205292016601562,0.6988257934570312,3.00132451171875,-3.952480916030534,2.710576335877863,6.827797709923664,0
1002,7.138254370117187,0.5791157104492187,2.8720376220703123,-0.25782442748091605,-1.6100343511450381,5.117874045801527,0
1027,6.848555969238281,0.5264432739257812,2.8983738403320314,3.1314885496183207,-1.228354961832061,3.7361946564885495,0
1052,6.654625634765623,0.5599620971679687,2.8337303955078124,3.7650763358778625,11.985385496183207,1.9499351145038166,0
1077,6.855738574218749,0.5455968872070313,2.915133251953125,6.818511450381679,11.176225190839695,-1.584416030534351,0
1102,6.798277734375,0.8759967163085937,3.097092578125,9.558969465648854,8.168591603053436,-4.5233473282442755,0
1127,7.037697900390625,1.1249936889648438,3.2766577026367187,8.61240458015267,12.741110687022902,-8.332507633587786,0
1152,7.341761511230469,1.4194804931640623,3.374819970703125,10.192557251908397,3.970118320610687,-10.508080152671756,0
1178,7.171773193359374,1.1896371337890623,3.53762568359375,10.391030534351145,-0.4649961832061067,-10.676019083969466,0
1203,7.037697900390625,1.0172546142578125,3.554385095214844,6.902480916030534,5.260194656488549,-6.660751908396947,0
1228,6.9706602539062485,0.7634692382812499,3.4634054321289063,3.0704198473282442,8.725843511450382,-1.9737290076335876,0
1253,7.030515295410155,0.7754402465820311,3.4562228271484376,2.665839694656489,1.9014160305343513,2.133141221374046,0
1278,6.910805212402344,0.7131910034179687,3.3820025756835936,1.7192748091603054,-2.678736641221374,6.094973282442748,0
1303,6.680961853027344,0.7179794067382812,3.5807213134765625,-2.143320610687023,7.115156488549619,7.644591603053435,0
1328,6.853344372558593,0.7203736083984374,3.4346750122070313,-4.525,11.985385496183207,6.0262709923664115,0
1353,7.066428320312499,0.7012199951171875,3.3915793823242186,-5.547900763358779,8.061721374045801,1.9270343511450383,0
1378,7.001784875488281,0.9095155395507811,3.46101123046875,-5.0593511450381685,-3.2894236641221375,-1.6607519083969464,0
1403,6.922776220703125,0.5743273071289062,3.298205517578125,-3.1509541984732823,-11.9001106870229,-4.4241106870229014,0
1428,6.819825549316406,0.4426462158203125,3.2646866943359374,-2.2959923664122135,-7.197820610687023,-4.62258396946565,0
1453,6.817431347656249,0.5647505004882812,3.214408459472656,-0.6471374045801527,-2.884843511450381,-1.7981564885496182,0
1478,6.939535632324218,0.8927561279296874,3.23116787109375,1.2994274809160307,-0.12911832061068695,1.461385496183206,0
1503,6.975448657226562,0.7826228515624999,3.1689186279296875,2.6353053435114506,2.153324427480916,4.140774809160305,0
1528,7.126283361816406,1.1968197387695312,3.3724257690429686,2.3452290076335878,9.962484732824429,4.949935114503816,0
1553,7.329790502929687,1.5487673828125,3.53762568359375,4.062786259541984,8.985385496183206,2.995736641221374,0
1579,7.368097729492187,1.2351269653320311,3.489741650390625,6.658206106870229,3.7487442748091606,0.011003816793893062,0
1604,7.0089674804687485,0.9047271362304686,3.4681938354492186,8.062786259541985,-0.8695763358778623,-1.1340343511450381,0
1629,6.716874877929686,0.8089590698242187,3.528048876953125,6.536068702290076,0.2601946564885498,1.1713091603053436,0
1654,6.697721264648437,0.6246055419921874,3.525654675292969,5.505534351145037,1.4205,4.583522900763358,0
1679,6.7599705078125,0.5192606689453124,3.683671984863281,1.5589694656488549,10.054087786259542,5.988103053435114,0
1704,6.827008154296874,0.8376894897460937,3.6860661865234374,-0.2501908396946565,6.359431297709923,5.675125954198473,0
1729,6.827008154296874,0.8017764648437499,3.566356103515625,-2.9295801526717558,-2.6482022900763353,4.644591603053435,0
1754,6.929958825683593,0.49531865234374994,3.4250982055664063,-5.830343511450382,-10.106217557251908,4.163675572519084,0
1779,6.903622607421874,0.6198171386718749,3.4298866088867186,-8.799809160305344,-8.55659923664122,3.446118320610687,0
1804,7.040092102050781,0.9214865478515624,3.3149649291992187,-8.395229007633588,-9.625301526717557,1.8277977099236642,0
1829,6.929958825683593,0.3229361328125,3.104275183105469,-2.8990458015267175,-19.39629389312977,1.1026068702290077,0
1854,6.733634289550781,0.08591016845703124,2.9869593017578127,-1.0517175572519086,-11.686370229007633,1.1560419847328243,0
1879,6.934747229003906,0.5551736938476562,3.1689186279296875,-1.5937022900763358,1.9014160305343513,0.6140572519083969,0
1904,7.969042346191405,1.6612948608398437,2.761904345703125,12.001717557251908,-42.15201908396947,-0.4851793893129771,0
1929,7.449500585937499,1.6684774658203123,3.0252665283203126,26.253625954198476,-96.24362213740457,-2.462278625954198,0
1954,6.75278790283203,0.4785592407226562,2.96301728515625,10.505534351145037,-43.388660305343514,-5.355408396946565,0
1980,7.42316436767578,-0.2564606689453125,2.5847334228515626,7.337595419847328,-22.533698473282442,-3.2638053435114505,0
2005,7.643430920410155,1.4697587280273436,2.5919160278320312,7.039885496183206,-17.014614503816794,0.26291221374045803,0
2030,7.365703527832031,0.9933125976562499,2.692472497558594,1.6734732824427483,2.351797709923664,4.323980916030534,0
2055,7.313031091308592,0.5503852905273438,3.0611795532226562,-2.074618320610687,18.45103435114504,8.346881679389313,0
2080,7.473442602539062,0.7730460449218749,2.8049999755859374,-2.7540076335877863,19.825080152671756,11.301080152671755,0
2105,7.435135375976562,0.6030577270507812,2.577550817871094,-2.273091603053435,15.183858778625956,10.415583969465649,0
2130,7.435135375976562,0.7036141967773437,2.5344551879882813,3.3986641221374048,-9.770339694656489,7.0186374045801525,0
2155,7.2699354614257805,0.4019447875976562,2.4147451049804687,7.078053435114503,-16.90774427480916,4.820164122137404,0
2180,7.035303698730467,0.4929244506835937,2.3333422485351565,9.13148854961832,-18.24362213740458,4.507187022900763,0
2205,7.028121093749999,0.7898054565429686,2.1226525024414062,8.429198473282442,-9.762706106870228,4.9041335877862595,0
2230,7.296271679687499,0.3971563842773437,2.0747684692382813,8.97118320610687,-12.762706106870228,4.423217557251908,0
2255,6.783912524414062,0.26068688964843745,2.6517710693359375,1.093320610687023,15.61133969465649,3.659858778625954,0
2280,7.09755294189453,-0.5605242797851563,2.6014928344726562,-29.563167938931297,123.79454580152672,5.094973282442748,0
2305,8.26592335205078,2.1616830078125,2.46502333984375,-5.479198473282443,17.130423664122137,3.148408396946565,0
2330,7.66019033203125,-0.1702694091796875,1.8473193115234374,34.96354961832061,-131.2588893129771,2.980469465648855,0
2355,7.188532604980469,1.117811083984375,2.1418061157226562,39.207824427480915,-132.00698091603053,-5.927927480916031,0
2381,6.491819921875,0.9861299926757812,1.6677541870117185,23.413931297709926,-51.67110305343512,-8.561515267175572,0
2406,7.166984790039062,0.21998546142578124,1.2104616699218749,20.871946564885498,-35.068049618320615,-7.515713740458015,0
2431,6.9491124389648435,0.7969880615234374,1.4618528442382812,18.413931297709926,-21.991713740458014,-4.966095419847329,0
2456,7.336973107910155,1.0627444458007813,1.5719861206054686,8.078053435114503,11.840347328244276,1.1942099236641222,0
2481,7.732016381835936,0.6102403320312499,1.7778874633789061,-1.3952290076335876,37.680041984732824,6.430851145038168,0
2506,7.226839831542969,-0.03140571289062499,1.2056732666015624,-5.250190839694657,33.50446946564885,8.988103053435115,0
2531,7.8517264648437495,0.8855735229492186,1.6797251953124999,-8.87614503816794,25.283095419847328,7.812530534351144,0
2556,7.28908907470703,2.293364099121094,1.4403050292968749,-10.670038167938932,10.298362595419848,2.9575687022900765,0
2581,7.155013781738281,0.7778344482421874,1.911962756347656,-22.906679389312977,36.36706488549618,-0.7599885496183206,0
2606,7.25078184814453,-0.797550244140625,2.3046118286132815,-30.303625954198473,52.45103435114503,-3.11113358778626,0
2631,7.332184704589843,-0.13675058593749997,2.3285538452148438,-36.12041984732824,73.19912595419848,-3.3477748091603057,0
2656,7.849332263183594,-0.10083756103515626,2.8935854370117187,-15.341793893129772,13.893782442748092,-1.920293893129771,0
2681,6.925170422363281,0.8376894897460937,2.3908030883789064,5.062786259541984,-39.319958015267176,-0.39357633587786267,0
2706,6.6881444580078115,0.014084118652343741,2.4027740966796873,-10.448664122137405,12.61133969465649,5.843064885496183,0
2731,7.171773193359374,-1.0561240234375,2.3836204833984374,-28.944847328244272,65.43576717557252,11.88123282442748,0
2757,6.41520546875,0.22237966308593748,2.9965361083984376,-36.08225190839695,77.58843893129772,13.041538167938931,0
2782,7.317819494628906,0.8448720947265624,2.7283855224609375,-39.921946564885495,80.08462213740458,10.06443893129771,0
2807,7.758352600097655,-0.09604915771484374,3.243138879394531,-34.7692748091603,60.16859160305343,6.56062213740458,0
2832,7.463865795898436,-0.4958808349609375,3.4179156005859377,-19.34179389312977,14.504469465648855,0.20947709923664115,0
2857,7.320213696289062,0.8831793212890624,3.5328372802734376,-9.54790076335878,2.970118320610687,-3.8286908396946564,0
2882,7.46147159423828,-0.04098251953125001,3.2551098876953124,9.620038167938931,-24.793240458015266,-7.729454198473283,0
2907,7.087976135253906,0.4234926025390625,3.4011561889648436,20.055152671755728,-28.289423664122136,-8.660751908396946,0
2932,6.999390673828125,0.6030577270507812,3.3532721557617187,20.711641221374048,-7.556599236641221,-6.698919847328245,0
2957,7.296271679687499,0.4522230224609375,3.240744677734375,22.574236641221376,-2.0680496183206105,-3.5080801526717553,0
2982,7.435135375976562,0.5767215087890625,3.3652431640625,30.085687022900764,-9.869576335877863,1.9423015267175572,0
3007,7.183744201660155,1.10823427734375,3.279051904296875,40.46736641221374,-27.938278625954197,9.652225190839694,0
3032,7.0616399169921875,0.6030577270507812,2.8720376220703123,38.29179389312977,-7.640568702290075,16.377416030534352,0
3057,7.274723864746092,-0.27082587890625,2.725991320800781,34.398664122137404,24.863248091603054,21.71329389312977,0
3082,7.095158740234374,0.07872756347656248,3.4274924072265627,29.00171755725191,38.03882061068702,23.20947709923664,0
3107,7.176561596679687,-0.20378823242187497,3.2934171142578124,26.604770992366415,25.321263358778626,25.148408396946564,0
3132,7.102341345214843,-0.6036199096679687,3.8943617309570313,23.49790076335878,11.130423664122137,22.667492366412212,0
3157,6.587587988281249,-0.5461590698242188,3.683671984863281,16.620038167938933,10.031187022900763,17.507187022900762,0
3183,6.542098156738281,-0.12477957763671874,3.8464776977539064,9.482633587786259,10.4205,12.70566030534351,0
3208,6.427176477050781,-0.2756142822265625,3.9159095458984376,6.910114503816794,7.603706106870229,8.011003816793894,0
3233,6.283524377441405,-0.18463461914062498,4.097868872070312,1.4597328244274808,18.153324427480918,5.598790076335877,0
3258,6.5397039550781235,0.24153327636718747,4.509671557617187,-6.128053435114504,24.970118320610688,5.072072519083969,0
3283,6.740816894531249,0.23435067138671872,4.251097778320312,-6.784541984732825,6.634240458015267,4.04917175572519,0
3308,6.56125177001953,0.12182319335937498,4.318135424804687,-3.502099236641221,-7.556599236641221,0.37741603053435113,0
3333,6.434359082031249,0.2032260498046875,4.282222399902343,-3.8074427480916033,-2.9764465648854963,-1.9126603053435112,0
3358,6.494214123535156,0.1457652099609375,4.215184753417968,-5.280725190839695,5.031187022900763,-3.2409045801526717,0
3383,6.609135803222656,0.05717974853515624,4.102657275390625,-4.975381679389313,7.504469465648855,-4.370675572519084,0
3408,6.707298071289062,0.19604344482421873,4.018860217285156,-2.525,0.5502709923664123,-4.744721374045802,0
3433,6.534915551757812,-0.11041436767578125,3.9877355957031253,-1.0898854961832063,-5.648202290076336,-3.9202938931297706,0
3458,6.472666308593749,-0.2923736938476562,4.042802233886718,-2.5326335877862594,-2.6482022900763353,-3.5844160305343507,0
3483,6.520550341796874,-0.09126075439453124,4.076321057128906,-6.112786259541985,1.8632480916030536,-3.3477748091603057,0
3508,6.640260424804686,-0.0745013427734375,4.047590637207031,-7.738740458015268,0.8937824427480917,-3.8363244274809163,0
3533,6.815037145996093,-0.18702882080078123,3.9661877807617185,-8.288358778625955,0.8937824427480917,-6.3172404580152675,0
3558,6.771941516113281,-0.02422310791015625,3.9542167724609376,-7.738740458015268,-3.3886603053435116,-9.29433969465649,0
3584,6.7647589111328115,-0.12238537597656249,3.8488718994140623,-5.815076335877863,-9.21308778625954,-11.569148854961833,0
3609,6.810248742675781,-0.17266361083984375,3.8297182861328123,-5.0593511450381685,-6.640568702290075,-13.240904580152671,0
3634,6.903622607421874,-0.04577092285156251,3.8201414794921873,-3.1967557251908394,-3.1978206106870224,-12.378309160305344,0
3659,6.980237060546874,0.083515966796875,3.6764893798828124,-1.7158396946564887,-4.052782442748091,-9.508080152671756,0
3684,6.903622607421874,0.04520874023437499,3.645364758300781,-1.0898854961832063,-6.297057251908397,-5.790522900763359,0
3709,6.8389791625976555,0.23913907470703122,3.712402404785156,-2.525,-0.2665229007633587,-3.4622786259541987,0
3734,6.989813867187499,0.3588491577148437,3.6764893798828124,-2.2120229007633587,2.954851145038168,-2.7905229007633587,0
3759,7.205292016601562,0.5695389038085937,3.7076140014648438,1.3299618320610687,-1.2588893129770993,-4.294339694656489,0
3784,7.207686218261718,0.6653069702148436,3.95900517578125,5.46736641221374,0.3059961832061069,-8.218003816793894,0
3809,7.380068737792969,0.6389707519531249,3.9829471923828126,8.917748091603054,-0.1520190839694655,-11.62258396946565,0
3834,7.219657226562499,0.5048954589843749,4.021254418945312,11.620038167938931,-9.686370229007633,-11.12640076335878,0
3859,6.879680590820311,0.22716806640624998,3.9446399658203126,10.322328244274809,-14.938278625954197,-7.836324427480916,0
3884,6.750393701171874,0.13858260498046873,4.107445678710937,6.200190839694656,-8.24362213740458,-5.538614503816794,0
3909,6.894045800781249,-0.014646301269531259,3.9637935791015626,3.6505725190839695,-0.44209541984732814,-3.317240458015267,0
3934,7.052063110351562,0.15773621826171874,3.84408349609375,1.5589694656488549,3.4815687022900765,-1.9050267175572517,0
3959,7.102341345214843,0.3732143676757812,3.7626806396484374,-0.8303435114503818,1.7258435114503818,-1.698919847328244,0
3985,7.155013781738281,0.6293939453124999,3.683671984863281,-3.5784351145038165,-0.18255343511450373,-2.6760190839694658,0
4010,7.214868823242187,0.7562866333007812,3.7602864379882814,-5.021183206106871,-2.8466755725190835,-3.5767824427480917,0
4035,7.052063110351562,0.6724895751953124,3.6094517333984375,-4.349427480916031,-8.014614503816793,-2.27143893129771,0
4060,6.886863195800781,0.5934809204101562,3.4562228271484376,-2.3723282442748093,-7.9153778625954185,-0.27907251908396946,0
4085,6.733634289550781,0.45940562744140623,3.5519908935546876,0.5208015267175572,-6.457362595419847,2.751461832061069,0
4110,6.680961853027344,0.5096838623046874,3.516077868652344,1.6276717557251907,-2.4497290076335876,5.583522900763358,0
4135,6.695327062988281,0.44504041748046874,3.607057531738281,1.8185114503816795,2.3441641221374048,6.698026717557251,0
4160,6.719269079589844,0.4330694091796875,3.607057531738281,2.2383587786259542,4.321263358778626,5.598790076335877,0
4185,6.671385046386718,0.49531865234374994,3.7052197998046874,1.5666030534351143,2.0006526717557254,4.850698473282443,0
4210,6.63786622314453,0.5455968872070313,3.80577626953125,0.1925572519083969,0.8632480916030535,3.247645038167939,0
4235,6.793489331054686,0.5958751220703125,3.7459212280273437,-0.44103053435114503,-1.5413320610687022,0.7590954198473282,0
4260,6.889257397460937,0.5312316772460938,3.8321124877929686,0.841412213740458,-2.808507633587786,-2.5767824427480917,0
4285,6.98263126220703,0.47616503906249996,3.834506689453125,2.658206106870229,-2.159652671755725,-5.76762213740458,0
4310,7.0257268920898435,0.5288374755859374,3.95900517578125,3.1238549618320612,-4.174919847328244,-5.805790076335878,0
4335,6.992208068847655,0.42109840087890626,3.9685819824218753,-0.0364503816793893,-2.464996183206107,-2.530980916030534,0
4361,6.975448657226562,0.41870419921875,3.872813916015625,-4.525,-0.7779732824427481,1.4232175572519083,0
4386,6.929958825683593,0.34448394775390623,3.712402404785156,-7.448664122137405,-1.6024007633587787,3.8965,0
4411,6.647443029785156,0.3827911743164062,3.5615677001953125,-8.433396946564885,-2.9459122137404576,4.140774809160305,0
4436,6.843767565917967,0.33011873779296874,3.4634054321289063,-7.570801526717558,-3.3046908396946564,1.7667290076335878,0
4461,6.850950170898437,0.35645495605468747,3.4203098022460936,-5.0669847328244275,-3.800874045801527,-1.9126603053435112,0
4486,6.889257397460937,0.3875795776367187,3.3963677856445313,-4.021183206106871,-2.396293893129771,-3.851591603053435,0
4511,7.016150085449218,0.44982882080078124,3.432280810546875,-2.952480916030534,-0.42682824427480903,-3.8363244274809163,0
4536,6.958689245605467,0.447434619140625,3.4155213989257813,-2.7311068702290076,-1.9230114503816793,-1.469912213740458,0
4561,6.925170422363281,0.44504041748046874,3.4849532470703126,-4.486832061068703,0.8403473282442749,1.6140572519083969,0
4586,6.86770958251953,0.40673319091796867,3.556779296875,-6.295992366412214,1.771645038167939,3.949935114503817,0
4611,6.79109512939453,0.37560856933593745,3.4586170288085936,-6.883778625954199,0.6876755725190841,4.217110687022901,0
4636,6.831796557617186,0.4881360473632812,3.2934171142578124,-6.601335877862596,-1.0527824427480916,1.7361946564885495,0
4661,7.037697900390625,0.5192606689453124,3.4490402221679686,-5.379961832061069,-3.5260648854961834,-1.698919847328244,0
4686,6.999390673828125,0.6916431884765625,3.4849532470703126,-3.9066793893129774,-4.41919465648855,-4.1035,0
4711,7.2316282348632805,0.5240490722656249,3.4538286254882813,-1.288358778625954,-4.40392748091603,-5.347774809160306,0
4736,7.219657226562499,0.46658823242187497,3.5232604736328126,1.108587786259542,-2.8543091603053434,-4.61495038167939,0
4762,7.17416739501953,0.45701142578125,3.4466460205078127,3.3910305343511453,-4.052782442748091,-2.43937786259542,0
4787,7.064034118652343,0.447434619140625,3.4418576171875,4.116221374045802,-0.9535458015267175,0.1865763358778626,0
4812,7.071216723632811,0.428281005859375,3.544808288574219,3.780343511450382,4.199125954198474,2.262912213740458,0
4837,7.049668908691406,0.3732143676757812,3.5328372802734376,3.0551526717557254,5.702942748091603,3.4995534351145037,0
4862,7.02093848876953,0.43067520751953126,3.549596691894531,1.7498091603053436,4.75637786259542,3.659858778625954,0
4887,7.018544287109374,0.38518537597656244,3.4825590454101563,0.22309160305343512,2.2372938931297712,2.7896297709923665,0
4912,6.8006719360351555,0.33011873779296874,3.583115515136719,-0.8990458015267176,0.7105763358778627,1.8735992366412213,0
4937,6.865315380859374,0.30617672119140626,3.556779296875,-1.35706106870229,1.3823320610687024,1.3545152671755725,0
4962,6.937141430664062,0.22237966308593748,3.6238169433593748,-0.3341603053435115,1.5350038167938933,0.9041335877862595,0
4987,6.870103784179686,0.16491882324218748,3.530443078613281,-0.17385496183206106,1.6113396946564886,1.3163473282442748,0
5012,6.815037145996093,-0.3354693237304688,3.6238169433593748,-5.273091603053436,14.954851145038168,2.1178740458015266,0
5037,6.894045800781249,0.21519705810546874,3.712402404785156,-2.3799618320610687,3.870881679389313,2.675125954198473,0
5062,6.98263126220703,0.5551736938476562,3.84408349609375,-3.4639312977099235,1.107522900763359,2.148408396946565,0
5087,7.037697900390625,0.6317881469726562,3.7938052612304687,-6.799809160305344,0.8098129770992367,2.7667290076335878,0
5112,6.9874196655273435,0.4234926025390625,3.6238169433593748,-8.85324427480916,0.5350038167938932,3.2171106870229007,0
5138,7.0233326904296876,0.3181477294921875,3.607057531738281,-7.456297709923665,-0.9764465648854963,1.293446564885496,0
5163,6.946718237304688,0.13858260498046873,3.69085458984375,-3.6776717557251906,-1.2894236641221375,-0.9508282442748092,0
5188,6.774335717773437,0.052391345214843746,3.6190285400390625,-1.0364503816793893,-0.31232442748091604,-0.8973931297709924,0
5213,6.82940235595703,0.07872756347656248,3.662124169921875,-1.9448473282442746,3.7334770992366413,0.5987900763358778,0
5238,6.898834204101562,0.2702636962890625,3.5711445068359375,-3.1509541984732823,4.015919847328244,1.2094770992366413,0
5263,6.843767565917967,0.31096512451171876,3.4538286254882813,-4.204389312977099,0.58843893129771,0.7209274809160305,0
5288,6.8389791625976555,0.23195646972656248,3.4155213989257813,-5.70820610687023,-0.4955305343511449,-0.5233473282442748,0
5313,6.6881444580078115,0.20562025146484375,3.3724257690429686,-5.53263358778626,-1.3275916030534352,-2.1264007633587787,0
5338,6.858132775878906,0.25589848632812495,3.470588037109375,-4.242557251908397,1.222026717557252,-3.8286908396946564,0
5363,6.9131994140624995,0.21040865478515625,3.3580605590820314,-0.9524809160305344,-0.12148473282442729,-5.477545801526718,0
5388,6.767153112792967,0.10027537841796874,3.4729822387695313,1.9101145038167937,-1.1443854961832058,-5.080599236641222,0
5413,6.697721264648437,0.11464058837890624,3.4011561889648436,0.7650763358778625,4.977751908396947,-2.569148854961832,0
5438,6.985025463867188,0.22716806640624998,3.4203098022460936,-0.5479007633587786,7.947217557251909,-1.7905229007633587,0
5463,7.116706555175781,0.3732143676757812,3.5519908935546876,0.37576335877862593,1.6800419847328245,-2.4317442748091604,0
5488,6.843767565917967,0.01887252197265625,3.4346750122070313,-0.9448473282442748,4.000652671755725,-2.7828893129770993,0
5513,6.815037145996093,0.15294781494140625,3.451434423828125,-0.028816793893129744,1.0922557251908398,-2.7447213740458016,0
5539,6.884468994140625,0.35166655273437497,3.5184720703125,1.0246183206106871,-0.029881679389312854,-2.1951030534351146,0
5564,7.155013781738281,0.4737708374023437,3.674095178222656,1.1849236641221372,3.7792786259541984,-2.080599236641221,0
5589,7.229234033203125,0.6102403320312499,3.712402404785156,2.261259541984733,1.6266068702290077,-2.3477748091603052,0
5614,7.190926806640625,0.5264432739257812,3.6573357666015625,3.162022900763359,-0.8008740458015264,-2.3325076335877863,0
5639,7.035303698730467,0.33011873779296874,3.9039385375976563,2.8337786259541984,0.13042366412213746,-0.5004465648854962,0
5664,6.8365849609375,0.23195646972656248,3.76746904296875,1.192557251908397,2.6418740458015266,2.606423664122137,0
5689,6.8389791625976555,0.208014453125,3.7554980346679687,-0.8837786259541985,3.489202290076336,4.736194656488549,0
5714,6.745605297851562,0.2032260498046875,3.8392950927734373,-2.2272900763358776,1.7334770992366413,4.23237786259542,0
5739,6.848555969238281,0.2630810913085937,3.7483154296875,-2.86087786259542,-0.38866030534351137,1.514820610687023,0
5764,6.743211096191405,0.2439274780273437,3.683671984863281,-2.883778625954198,-4.716904580152672,-0.4241106870229009,0
5789,6.769547314453125,0.3229361328125,3.7339502197265624,-3.616603053435114,-1.0985839694656487,-2.1951030534351146,0
5814,6.992208068847655,0.4043389892578124,3.662124169921875,-1.6700381679389311,-1.006980916030534,-3.195103053435114,0
5839,6.992208068847655,0.447434619140625,3.7171908081054688,0.13912213740458013,-2.0527824427480916,-2.5462480916030534,0
5864,6.841373364257811,0.32533033447265625,3.674095178222656,0.9788167938931297,-0.4191946564885496,-0.9813625954198474,0
5890,6.692932861328125,0.313359326171875,3.678883581542969,1.4444656488549619,0.9624847328244276,0.8965,0
5915,6.743211096191405,0.28223470458984373,3.616634338378906,0.5131679389312976,4.618973282442749,1.4766526717557251,0
5940,6.815037145996093,0.3229361328125,3.640576354980469,0.23835877862595417,3.939583969465649,0.5148206106870228,0
5965,6.896440002441406,0.4019447875976562,3.6764893798828124,1.3681297709923665,-0.6405687022900763,-1.370675572519084,0
5990,6.793489331054686,0.4019447875976562,3.7602864379882814,1.2001908396946566,0.6876755725190841,-2.9737290076335876,0
6015,6.917987817382811,0.5503852905273438,3.7531038330078124,1.475,0.34416412213740477,-3.874492366412214,0
6040,6.920382019042967,0.5671447021484375,3.9135153442382813,1.871946564885496,-0.3657595419847328,-3.851591603053435,0
6065,6.903622607421874,0.6293939453124999,3.8608429077148436,1.3833969465648854,1.5273702290076336,-2.60731679389313,0
6090,6.817431347656249,0.5048954589843749,3.8225356811523437,1.0551526717557251,2.054087786259542,-0.7599885496183206,0
6115,6.819825549316406,0.4737708374023437,3.8416892944335936,0.5360687022900763,2.954851145038168,0.20947709923664115,0
6140,6.843767565917967,0.4139157958984375,3.8752081176757813,0.5208015267175572,1.7411106870229007,-0.4393778625954198,0
6165,6.834190759277344,0.38039697265624994,3.8464776977539064,0.43683206106870226,-1.396293893129771,-1.2943396946564887,0
6190,6.788700927734374,0.28223470458984373,3.8464776977539064,-0.7005725190839694,-0.4649961832061067,-1.5538816793893129,0
6215,6.853344372558593,0.34448394775390623,3.8129588745117187,-2.6776717557251906,-0.21308778625954194,-1.9966297709923664,0
6240,6.929958825683593,0.313359326171875,3.7746516479492187,-3.9219465648854963,-3.3046908396946564,-2.752354961832061,0
6265,6.882074792480467,0.31575352783203126,3.7076140014648438,-5.082251908396947,-4.1138511450381685,-3.0271641221374046,0
6291,6.855738574218749,0.38518537597656244,3.583115515136719,-5.326526717557252,-5.182553435114503,-3.324874045801527,0
6316,6.891651599121093,0.3875795776367187,3.540019885253906,-4.357061068702291,-5.991713740458016,-3.1340343511450377,0
6341,7.071216723632811,0.5575678955078125,3.9087269409179686,-4.502099236641222,1.3059961832061069,-3.6836526717557248,0
6366,7.0999471435546875,0.3492723510742187,3.592692321777344,-1.4181297709923664,-4.617667938931298,-3.866858778625954,0
6391,7.0472747070312485,0.5695389038085937,3.6190285400390625,-2.4944656488549617,-0.19782061068702284,-2.5233473282442747,0
6416,6.843767565917967,0.25589848632812495,3.4298866088867186,-1.3265267175572517,-0.3810267175572517,-0.16456870229007647,0
6441,6.882074792480467,0.26068688964843745,3.525654675292969,-2.2043893129770993,4.886148854961832,1.843064885496183,0
6466,7.001784875488281,0.3588491577148437,3.4370692138671877,-0.6624045801526718,3.3059961832061067,2.675125954198473,0
6491,6.886863195800781,0.44504041748046874,3.5232604736328126,0.3223282442748091,2.7563778625954196,2.1713091603053436,0
6516,6.898834204101562,0.5072896606445312,3.602269128417969,1.2001908396946566,1.8021793893129772,1.3087137404580154,0
6541,7.028121093749999,0.6341823486328124,3.6190285400390625,1.2230916030534351,3.542637404580153,-0.8134236641221374,0
6566,7.253176049804687,0.6677011718749999,3.6860661865234374,2.475,2.160958015267176,-3.8973931297709927,0
6591,7.133465966796874,0.7060083984375,3.99731240234375,4.123854961832061,1.237293893129771,-5.164568702290077,0
6616,7.011361682128906,0.23435067138671872,3.9709761840820312,6.391030534351144,-0.5184312977099235,-3.2790725190839694,0
6641,6.8772863891601554,0.25111008300781246,3.9374573608398435,5.0551526717557245,3.58843893129771,-0.5386145038167939,0
6666,6.9131994140624995,0.30617672119140626,3.8177472778320314,2.207824427480916,5.160958015267175,1.5377213740458013,0
6692,6.903622607421874,0.24153327636718747,3.777045849609375,0.8719465648854962,-1.5718664122137405,2.9728358778625954,0
6717,6.736028491210937,0.3684259643554687,3.7722574462890623,-1.242557251908397,-2.8695763358778623,3.133141221374046,0
6742,6.807854541015625,0.43067520751953126,3.664518371582031,-2.708206106870229,-2.9764465648854963,1.8812328244274807,0
6767,6.819825549316406,0.48574184570312495,3.6381821533203125,-2.9982824427480916,-2.6329351145038165,0.033904580152671726,0
6792,6.963477648925781,0.6365765502929687,3.5112894653320312,-1.2349236641221375,-2.785606870229007,-2.2332709923664122,0
6817,6.9491124389648435,0.428281005859375,3.4657996337890626,2.6047709923664124,-3.694003816793893,-3.5767824427480917,0
6842,6.891651599121093,0.5671447021484375,3.566356103515625,4.772709923664122,0.5121030534351146,-3.118767175572519,0
6867,6.860526977539062,0.49053024902343745,3.4921358520507813,5.7116412213740455,3.9090496183206107,0.0873396946564885,0
6892,6.783912524414062,0.34448394775390623,3.4849532470703126,5.29179389312977,4.825080152671756,3.6674923664122137,0
6917,6.896440002441406,0.5120780639648437,3.516077868652344,3.9024809160305343,8.4205,4.843064885496183,0
6942,6.989813867187499,0.5671447021484375,3.5711445068359375,3.688740458015267,7.611339694656488,3.3774160305343512,0
6967,6.939535632324218,0.6724895751953124,3.7052197998046874,4.2688931297709924,3.9090496183206107,1.8583320610687024,0
6992,6.939535632324218,0.7586808349609374,3.7171908081054688,3.5055343511450383,3.0922557251908396,0.5224541984732824,0
7017,7.0257268920898435,0.7610750366210937,3.8416892944335936,3.0856870229007636,5.496835877862596,-1.4164770992366411,0
7042,7.037697900390625,0.8065648681640625,3.973370385742187,2.261259541984733,12.046454198473283,-2.569148854961832,0
7067,6.956295043945311,0.696431591796875,3.8680255126953123,4.413931297709923,5.718209923664123,-1.8744923664122135,0
7093,6.7647589111328115,0.5575678955078125,3.92069794921875,4.467366412213741,1.6037061068702292,0.6216908396946564,0
7118,6.834190759277344,0.5575678955078125,3.92069794921875,2.9864503816793895,1.1838587786259542,3.148408396946565,0
7143,6.903622607421874,0.5384142822265625,4.011677612304687,1.2612595419847328,1.9701183206106871,3.774362595419847,0
7168,6.980237060546874,0.6150287353515624,4.018860217285156,1.6047709923664124,-1.6863702290076334,2.8048969465648854,0
7193,6.925170422363281,0.5958751220703125,3.9087269409179686,2.4826335877862595,-4.984080152671755,2.3392480916030536,0
7218,6.757576306152344,0.5025012573242187,4.030831225585937,3.0169847328244277,-2.4878969465648852,3.40031679389313,0
7243,6.697721264648437,0.42588680419921876,4.018860217285156,2.612404580152672,3.489202290076336,4.644591603053435,0
7268,6.740816894531249,0.3373013427734375,3.7794400512695314,2.8185114503816795,2.657141221374046,5.041538167938931,0
7293,6.716874877929686,0.34208974609375,3.8177472778320314,2.742175572519084,1.0693549618320612,3.995736641221374,0
7318,6.654625634765623,0.36124335937499996,3.9135153442382813,2.062786259541985,1.3823320610687024,3.079706106870229,0
7343,6.728845886230467,0.3732143676757812,3.9254863525390626,1.7956106870229007,2.1914923664122137,2.4690190839694655,0
7368,6.625895214843749,0.2965999145507812,3.992523999023437,2.6505725190839695,2.1991259541984736,3.331614503816794,0
7393,6.671385046386718,0.29420571289062497,3.8656313110351563,2.490267175572519,4.58080534351145,4.40031679389313,0
7418,6.848555969238281,0.3971563842773437,3.9254863525390626,1.9635496183206107,5.93958396946565,3.3621488549618324,0
7443,6.917987817382811,0.43067520751953126,3.92069794921875,2.3833969465648854,2.970118320610687,1.0186374045801527,0
7468,7.02093848876953,0.332512939453125,3.7985936645507814,2.4673664122137406,-0.03751526717557252,-1.385942748091603,0
7494,7.035303698730467,0.43546361083984375,3.8369008911132814,3.4826335877862595,-0.7856068702290075,-3.1264007633587787,0
7519,7.119100756835937,0.32533033447265625,3.7914110595703123,4.910114503816794,-1.793240458015267,-2.553881679389313,0
7544,6.884468994140625,0.3923679809570312,3.757892236328125,5.505534351145037,-1.4802633587786258,-0.019530534351145046,0
7569,6.9706602539062485,0.22237966308593748,3.7602864379882814,3.8643129770992366,2.8861488549618324,3.9881030534351147,0
7594,6.937141430664062,0.3085709228515625,3.949428369140625,3.9177480916030536,3.970118320610687,6.980469465648855,0
7619,6.843767565917967,0.3588491577148437,3.8608429077148436,3.7345419847328247,1.2983625954198474,9.491919847328244,0
7644,6.649837231445312,0.25589848632812495,4.002100805664062,1.6811068702290077,1.038820610687023,10.583522900763358,0
7669,6.48463731689453,0.22716806640624998,3.99731240234375,-0.2959923664122137,0.015919847328244474,10.22474427480916,0
7694,6.357744628906249,0.18646663818359374,3.9446399658203126,-1.8227099236641222,-3.029881679389313,8.919400763358778,0
7719,6.340985217285156,0.18167823486328125,3.9446399658203126,-3.143320610687023,-3.5336984732824424,5.667492366412214,0
7744,6.4822431152343745,0.4019447875976562,3.9063327392578127,-3.8914122137404576,-1.2207213740458016,0.812530534351145,0
7769,6.901228405761718,0.5288374755859374,4.246309374999999,-1.9219465648854963,4.237293893129771,-4.653118320610687,0
7794,6.939535632324218,0.29899411621093747,4.289405004882812,1.9559160305343513,10.336530534351146,-8.256171755725191,0
7819,6.910805212402344,0.600663525390625,4.344471643066406,5.787977099236641,9.275461832061069,-6.76762213740458,0
7844,6.575616979980468,0.2582926879882812,4.076321057128906,3.3986641221374048,16.11515648854962,-1.4164770992366411,0
7869,6.060863623046875,0.2032260498046875,3.563961901855469,-0.4639312977099237,12.649507633587787,5.461385496183206,0
7895,6.1255070678710934,0.03563193359375,3.2646866943359374,-5.112786259541985,8.855614503816794,5.865965648854962,0
7920,6.549280761718749,-0.07689554443359375,3.233562072753906,-3.9143129770992364,3.389965648854962,-2.218003816793893,0
7945,6.728845886230467,0.10266958007812499,3.961399377441406,5.30706106870229,-8.839041984732823,-11.004263358778626,0
7970,7.13586016845703,0.3588491577148437,4.394749877929687,10.016984732824428,-1.8314083969465647,-18.1035,0
7995,7.50696142578125,0.48095344238281246,4.679659875488281,9.169656488549618,4.397599236641222,-20.07296564885496,0
8020,7.808630834960936,0.8592373046874999,4.816129370117187,5.704007633587786,-1.5489656488549617,-16.09586641221374,0
8045,7.521326635742187,0.7898054565429686,4.650929455566406,0.5437022900763359,-7.762706106870228,-7.332507633587786,0
8070,7.202897814941406,0.6940373901367187,4.2965876098632805,-3.2043893129770993,-6.831408396946564,2.316347328244275,0
8095,7.0233326904296876,0.6485475585937499,4.193636938476562,-2.1280534351145035,-1.564232824427481,9.530087786259541,0
8120,6.771941516113281,0.6126345336914062,4.002100805664062,2.0169847328244273,5.93958396946565,13.820164122137404,0
8145,6.5780111816406235,0.5503852905273438,3.7914110595703123,5.62767175572519,9.970118320610688,14.972835877862595,0
8170,6.357744628906249,0.4330694091796875,3.7435270263671874,7.169656488549618,9.618973282442749,13.8965,0
8195,6.372109838867186,0.5527794921875,3.7602864379882814,5.841412213740457,11.054087786259542,9.827797709923663,0
8220,6.585193786621093,0.5288374755859374,3.721979211425781,5.589503816793893,3.9777519083969466,3.614057251908397,0
8245,6.52294454345703,0.5240490722656249,4.035619628906249,6.001717557251908,-4.07568320610687,-1.1798358778625953,0
8270,6.56125177001953,0.5982693237304687,4.102657275390625,5.085687022900763,-5.785606870229007,-3.3554083969465647,0
8296,6.487031518554686,0.48574184570312495,4.2582803833007805,3.742175572519084,-8.274156488549618,-2.668385496183206,0
8321,6.499002526855468,0.5839041137695312,4.121810888671875,1.0322519083969466,-4.663469465648856,-0.9737290076335877,0
8346,6.6139242065429675,0.6078461303710937,4.124205090332031,-0.8303435114503818,-1.5413320610687022,0.4155839694656488,0
8371,6.4056286621093745,0.28462890625,4.128993493652343,0.45973282442748087,-4.724538167938931,1.8812328244274807,0
8396,6.326620007324219,0.24153327636718747,4.085897863769531,0.7040076335877863,0.58843893129771,2.1407748091603054,0
8421,6.585193786621093,0.3588491577148437,4.097868872070312,0.9559160305343511,6.489202290076335,-0.2561717557251909,0
8446,6.750393701171874,0.4977128540039062,4.260674584960937,3.6505725190839695,0.8250801526717558,-3.1569351145038165,0
8471,6.855738574218749,0.6437591552734374,4.428268701171874,2.558969465648855,1.1380572519083971,-5.553881679389313,0
8496,6.910805212402344,0.7251620117187499,4.461787524414062,1.0780534351145037,-1.396293893129771,-6.195103053435115,0
8521,6.937141430664062,0.6150287353515624,4.492912145996093,-0.47156488549618325,-3.258889312977099,-4.859225190839695,0
8546,6.819825549316406,0.5791157104492187,4.48812374267578,-2.02118320610687,-2.2665229007633587,-2.59968320610687,0
8571,6.798277734375,0.6269997436523437,4.243915173339843,-3.7921755725190835,-0.6558358778625952,-0.4393778625954198,0
8596,6.973054455566406,0.5120780639648437,4.188848535156249,-4.212022900763359,-0.7550725190839693,0.5758893129770992,0
8621,6.86770958251953,0.42588680419921876,4.2199731567382806,-2.937213740458015,-1.6711030534351146,1.0033702290076336,0
8646,6.793489331054686,0.46658823242187497,4.279828198242187,-2.35706106870229,-0.21308778625954194,1.6903931297709924,0
8671,6.79109512939453,0.4426462158203125,4.291799206542969,-3.0593511450381676,2.176225190839695,2.3545152671755725,0
8697,6.853344372558593,0.4617998291015625,4.272645593261719,-4.822709923664123,-1.7856068702290075,3.1407748091603054,0
8722,6.750393701171874,0.5312316772460938,4.097868872070312,-7.212022900763359,-9.503164122137404,3.3239809160305342,0
8747,6.467877905273437,0.48095344238281246,4.109839880371093,-10.402862595419847,-8.40392748091603,3.5529885496183207,0
8772,6.4056286621093745,0.41630999755859377,3.992523999023437,-10.960114503816794,-1.4726297709923664,3.2171106870229007,0
8797,6.362533032226561,0.2702636962890625,3.7650748413085937,-7.85324427480916,-1.0298816793893129,2.484286259541985,0
8822,6.348167822265624,0.0978811767578125,3.710008203125,-4.502099236641222,-1.5489656488549617,0.6522251908396947,0
8847,6.393657653808593,0.11942899169921874,3.540019885253906,-3.257824427480916,-2.08331679389313,-0.7676221374045803,0
8872,6.250005554199219,0.17449562988281248,3.7650748413085937,-4.311259541984733,-0.7550725190839693,-1.538614503816794,0
8897,6.345773620605468,0.23195646972656248,3.8392950927734373,-6.433396946564886,2.023553435114504,-2.6760190839694658,0
8922,6.728845886230467,0.38997377929687493,3.84408349609375,-8.212022900763358,2.1914923664122137,-6.454645038167939,0
8947,7.147831176757811,0.5168664672851562,3.9422457641601563,-6.9524809160305345,-5.823774809160305,-12.042431297709925,0
8972,7.425558569335936,0.5360200805664063,4.097868872070312,-5.257824427480917,-9.190187022900762,-16.050064885496184,0
8997,7.643430920410155,0.6940373901367187,4.049984838867187,-2.9143129770992364,-11.23598854961832,-16.691286259541986,0
9022,7.624277307128906,0.543202685546875,4.035619628906249,0.30706106870229005,-22.648202290076334,-14.889759541984732,0
9047,7.210080419921874,0.7730460449218749,4.145752905273437,2.2154580152671755,-30.739805343511453,-11.141667938931299,0
9073,6.812642944335937,0.5216548706054687,3.9518225708007813,-2.410496183206107,-19.716904580152672,-5.172202290076336,0
9098,6.692932861328125,0.4115215942382813,3.7914110595703123,-8.02118320610687,-10.915377862595419,0.5682557251908397,0
9123,6.647443029785156,0.44982882080078124,3.3676373657226564,-11.975381679389313,-10.655835877862595,3.7361946564885495,0
9148,6.585193786621093,0.4785592407226562,3.1784954345703125,-12.87614503816794,-14.739805343511449,2.2552786259541984,0
9173,6.400840258789061,0.4785592407226562,3.0635737548828126,-11.219656488549619,-14.724538167938931,-1.9584618320610687,0
9198,6.338591015625,0.34448394775390623,2.7140203125,-8.616603053435115,-9.88484351145038,-6.363041984732825,0
9223,6.546886560058593,0.26547529296874994,2.608675439453125,-2.8990458015267175,-11.640568702290075,-9.62258396946565,0
9249,6.633077819824218,0.3181477294921875,2.682895690917969,3.1009541984732825,-10.503164122137404,-12.469912213740459,0
9274,6.872497985839844,0.543202685546875,2.8744318237304687,7.085687022900763,-3.548965648854962,-14.60731679389313,0
9299,7.2699354614257805,0.8496604980468749,3.128217199707031,10.329961832061068,7.283095419847328,-16.042431297709925,0
9324,7.43034697265625,1.283010998535156,3.3413011474609373,13.772709923664122,11.954851145038168,-15.164568702290076,0
9349,7.643430920410155,1.1704835205078123,3.4538286254882813,14.45973282442748,13.344164122137405,-12.683652671755725,0
9374,7.46865419921875,1.1154168823242188,3.432280810546875,14.12385496183206,8.458667938931297,-9.553881679389313,0
9399,7.370491931152343,1.043590832519531,3.4394634155273436,10.116221374045802,1.6113396946564886,-5.179835877862596,0
9424,7.243599243164062,0.9573995727539062,3.3484837524414064,3.261259541984733,0.008286259541984808,-2.6378511450381676,0
9449,7.145436975097655,0.7945938598632811,3.4011561889648436,-1.7769083969465647,-0.4802633587786258,-1.6302175572519082,0
9474,7.018544287109374,0.6317881469726562,3.3532721557617187,-4.097519083969466,0.35943129770992366,-1.7905229007633587,0
9499,7.123889160156248,0.7347388183593749,3.42270400390625,-3.822709923664122,2.023553435114504,-2.3096068702290076,0
9524,7.071216723632811,1.1920313354492187,3.489741650390625,-1.639503816793893,-1.2512557251908394,-2.1951030534351146,0
9549,6.8772863891601554,1.3907500732421874,3.5041068603515626,-0.34179389312977104,-5.3581259541984725,-0.5920496183206106,0
9574,6.647443029785156,1.2854052001953125,3.4250982055664063,1.6200381679389313,-8.205454198473282,1.2552786259541984,0
9599,6.403234460449219,1.1609067138671874,3.3053881225585937,0.1925572519083969,0.14569083969465657,2.3774160305343512,0
9625,6.704903869628905,1.2590689819335936,3.3293301391601564,0.9101145038167939,0.7640114503816795,1.362148854961832,0
9650,6.769547314453125,1.2231559570312498,3.3484837524414064,2.177290076335878,-4.022248091603053,-0.6607519083969465,0
9675,6.680961853027344,1.2279443603515623,3.4370692138671877,0.06278625954198469,-1.8390419847328245,-2.630217557251908,0
9700,6.733634289550781,1.273434191894531,3.642970556640625,-1.7540076335877863,2.374698473282443,-3.660751908396947,0
9725,6.815037145996093,1.3141356201171874,3.5208662719726562,-3.754007633587786,4.4357671755725185,-3.7065534351145035,0
9750,6.889257397460937,1.2686457885742186,3.4203098022460936,-4.1738549618320615,-3.7398053435114504,-2.912660305343511,0
9775,6.702509667968749,1.0364082275390625,3.228773669433594,-5.967748091603053,-7.770339694656489,-2.7141870229007634,0
9800,6.625895214843749,0.8376894897460937,3.125822998046875,-10.341793893129772,1.107522900763359,-4.240904580152672,0
9825,6.858132775878906,0.9406401611328125,3.0324491333007813,-11.036450381679389,4.847980916030535,-6.195103053435115,0
9850,7.013755883789062,0.8089590698242187,2.86724921875,-8.2043893129771,1.1151564885496184,-8.874492366412214,0
9875,7.032909497070311,0.8999387329101561,3.085121569824219,-3.3723282442748093,0.32889694656488566,-10.683652671755725,0
9900,7.13586016845703,1.043590832519531,3.19286064453125,2.7956106870229007,7.130423664122137,-12.500446564885497,0
9925,7.444712182617187,1.1848487304687498,3.3101765258789064,9.97118320610687,12.44340076335878,-14.828690839694657,0
9950,7.645825122070312,1.1872429321289062,3.4657996337890626,18.00171755725191,7.741110687022902,-15.301973282442749,0
9975,7.554845458984373,1.3428660400390624,3.621422741699219,22.108587786259545,1.7411106870229007,-12.93556106870229,0
10001,7.222051428222655,1.560738391113281,3.88239072265625,20.070419847328246,5.664774809160306,-8.080599236641222,0
10026,7.243599243164062,1.539190576171875,3.80577626953125,14.13148854961832,14.244927480916031,-2.7065534351145035,0
10051,7.107129748535155,1.4697587280273436,3.7435270263671874,8.12385496183206,14.603706106870229,2.7667290076335878,0
10076,6.884468994140625,1.4362399047851562,3.678883581542969,4.452099236641221,10.519736641221375,6.308713740458015,0
10101,6.879680590820311,1.4769413330078123,3.712402404785156,1.093320610687023,13.74874427480916,5.8965,0
10126,6.846161767578125,1.560738391113281,3.607057531738281,0.11622137404580152,10.40523282442748,3.331614503816794,0
10151,6.712086474609374,1.4003268798828123,3.4203098022460936,0.8108778625954198,1.8174465648854963,1.4690190839694655,0
10176,6.685750256347656,1.3715964599609374,3.4825590454101563,0.5666030534351145,-0.9993473282442746,-0.5462480916030535,0
10201,6.815037145996093,1.539190576171875,3.602269128417969,0.9788167938931297,-0.2817900763358778,-1.7065534351145035,0
10226,6.704903869628905,1.6325644409179687,3.5041068603515626,1.5360687022900765,-2.5031641221374046,0.4690190839694656,0
10251,6.5923763916015625,1.500883349609375,3.508895263671875,1.5055343511450383,-1.174919847328244,4.171309160305343,0
10276,6.961083447265625,1.5751036010742185,3.7842284545898437,3.009351145038168,3.9777519083969466,4.514820610687023,0
10302,7.004179077148437,1.970146875,4.136176098632812,6.406297709923664,3.5960725190839695,4.530087786259542,0
10327,6.776729919433593,1.8983208251953123,4.306164416503906,8.055152671755724,3.504469465648855,5.591156488549618,0
10352,6.850950170898437,1.7762165405273436,4.275039794921875,5.536068702290076,7.061721374045801,5.873599236641221,0
10377,6.9491124389648435,1.5966514160156249,4.298981811523437,1.871946564885496,7.527370229007634,4.308713740458015,0
10402,6.589982189941405,1.3165298217773436,4.148147106933593,0.3528625954198473,-0.28942366412213727,4.575889312977099,0
10427,6.422388073730468,1.0292256225585936,3.9781587890625,0.17729007633587784,-8.92301145038168,5.446118320610687,0
10452,6.238034545898437,1.1369646972656249,3.9637935791015626,-0.04408396946564885,-9.839041984732823,4.888866412213741,0
10477,6.326620007324219,1.3692022583007812,3.863237109375,-2.69293893129771,-3.5184312977099235,2.7361946564885495,0
10502,6.329014208984375,1.6205934326171874,3.702825598144531,-7.639503816793894,0.489202290076336,0.8659656488549617,0
10527,6.6833560546875,1.4960949462890625,3.49931845703125,-10.86087786259542,-4.777973282442748,-1.1645687022900764,0
10552,6.700115466308593,1.2638573852539061,3.2958113159179687,-12.502099236641222,-13.129118320610687,-4.164568702290077,0
10577,6.697721264648437,1.0531676391601563,3.099486779785156,-12.341793893129772,-16.182553435114503,-7.309606870229008,0
10602,6.712086474609374,1.2183675537109373,3.0180839233398435,-12.250190839694657,-10.877209923664122,-9.691286259541986,0
10627,7.035303698730467,1.2183675537109373,3.099486779785156,-8.822709923664123,-8.350492366412213,-11.26380534351145,0
10652,7.325002099609374,1.4099036865234373,3.2718692993164065,-3.6776717557251906,-5.640568702290077,-12.355408396946565,0
10677,7.550057055664062,1.8719846069335937,3.4370692138671877,-2.051717557251908,-1.9840801526717557,-10.424110687022901,0
10703,7.267541259765625,1.75945712890625,3.4921358520507813,-1.906679389312977,-4.464996183206107,-5.401209923664123,0
10728,7.164590588378906,1.6517180541992187,3.508895263671875,-3.3723282442748093,-2.556599236641221,0.14077480916030527,0
10753,7.155013781738281,1.5631325927734374,3.470588037109375,-5.18912213740458,2.473935114503817,2.4384847328244272,0
10778,7.293877478027343,1.5655267944335935,3.298205517578125,-4.990648854961832,-0.21308778625954194,1.713293893129771,0
10803,7.1598021850585924,1.4984891479492186,3.3389069458007814,-3.18912213740458,-6.434461832061068,0.11787404580152672,0
10828,7.018544287109374,1.4122978881835937,3.3221475341796873,-1.8303435114503817,-4.052782442748091,-1.821057251908397,0
10853,7.162196386718748,1.4649703247070311,3.2455330810546874,-1.8456106870229005,-0.3504923664122137,-2.7141870229007634,0
10878,7.241205041503906,1.4793355346679686,3.113851989746094,-1.8074427480916029,-4.381026717557251,-1.7905229007633587,0
10903,7.0616399169921875,1.4721529296874998,3.240744677734375,-0.5173664122137405,-11.755072519083969,1.0033702290076336,0
10928,6.824613952636718,1.3715964599609374,3.2072258544921874,-0.9448473282442748,-10.144385496183206,4.278179389312977,0
10953,6.831796557617186,1.3979326782226562,3.109063586425781,-3.7769083969465647,-1.7474389312977099,6.39268320610687,0
10978,7.166984790039062,1.4841239379882811,2.9869593017578127,-4.227290076335878,0.16859160305343512,5.621690839694656,0
11003,7.085581933593748,1.4051152832031248,3.0348433349609376,-0.7387404580152671,-7.266522900763357,3.942301526717557,0
11028,6.901228405761718,1.3261066284179686,3.106669384765625,0.6353053435114504,-3.8619427480916033,2.995736641221374,0
11053,6.9874196655273435,1.251886376953125,3.11624619140625,1.039885496183206,1.4281335877862595,2.980469465648855,0
11078,7.049668908691406,1.4362399047851562,3.104275183105469,2.7192748091603054,-2.41156106870229,3.9881030534351147,0
11104,6.934747229003906,1.1633009155273437,3.2359562744140624,4.429198473282443,-6.07568320610687,6.072072519083969,0
11129,6.745605297851562,1.1633009155273437,3.259898291015625,4.849045801526717,-2.8619427480916033,7.881232824427481,0
11154,6.795883532714844,1.1297820922851562,3.3389069458007814,2.925381679389313,2.038820610687023,8.865965648854962,0
11179,6.621106811523437,1.0459850341796875,3.190466442871094,1.5589694656488549,-0.961179389312977,9.331614503816793,0
11204,6.594770593261718,1.0890806640625,3.233562072753906,-0.40286259541984737,-2.274156488549618,7.316347328244275,0
11229,6.8365849609375,1.1034458740234374,3.3101765258789064,-1.2654580152671757,0.3517977099236642,1.7667290076335878,0
11254,7.0999471435546875,1.3237124267578124,3.3413011474609373,1.2688931297709924,-0.34285877862595404,-4.385942748091604,0
11279,7.229234033203125,1.29977041015625,3.38439677734375,5.116221374045801,-2.9459122137404576,-8.370675572519085,0
11305,7.104735546874999,1.1513299072265624,3.3101765258789064,6.001717557251908,2.061721374045802,-7.44701145038168,0
11330,6.98263126220703,1.2231559570312498,3.403550390625,8.14675572519084,-3.6329351145038165,-4.065332061068703,0
11355,6.963477648925781,1.10823427734375,3.4346750122070313,6.444465648854962,-2.1367519083969464,-0.2409045801526718,0
11380,7.052063110351562,1.022043017578125,3.4442518188476563,3.276526717557252,3.7792786259541984,2.05680534351145,0
11405,7.152619580078125,1.1010516723632813,3.3820025756835936,0.291793893129771,4.023553435114504,3.4232175572519083,0
11430,7.032909497070311,1.2375211669921875,3.432280810546875,-2.6624045801526717,-0.006980916030534301,3.537721374045802,0
11455,6.860526977539062,1.1968197387695312,3.3125707275390623,-5.70057251908397,-2.396293893129771,2.575889312977099,0
11480,6.788700927734374,1.0842922607421874,3.185678039550781,-8.418129770992367,-5.235988549618321,1.3087137404580154,0
11505,6.745605297851562,1.1202052856445313,2.953440478515625,-10.265458015267177,-5.716904580152672,-1.1722022900763358,0
11530,6.827008154296874,1.0962632690429688,2.7762695556640624,-9.769274809160306,-6.083316793893129,-3.4699122137404577,0
11555,6.915593615722655,1.1345704956054687,2.773875354003906,-6.448664122137405,-4.793240458015267,-5.347774809160306,0
11580,7.035303698730467,1.1345704956054687,2.8433072021484374,-1.4257633587786258,-0.9917137404580152,-5.5233473282442755,0
11605,6.9706602539062485,1.1489357055664062,3.080333166503906,3.108587786259542,2.4815687022900765,-3.630217557251908,0
11630,7.131071765136718,1.0866864624023438,3.037237536621094,4.665839694656488,7.59607251908397,-0.09586641221374048,0
11655,7.358520922851562,1.4434225097656248,3.11624619140625,4.6047709923664115,7.794545801526718,1.6980267175572519,0
11680,7.4949904174804685,1.6134108276367187,3.243138879394531,2.6505725190839695,6.054087786259542,1.5758893129770992,0
11706,7.521326635742187,1.7187557006835936,3.2742635009765624,1.9788167938931296,-1.4955305343511451,0.29344656488549614,0
11731,7.25078184814453,1.6493238525390623,3.2934171142578124,-0.7845419847328244,-6.755072519083969,0.12550763358778627,0
11756,6.934747229003906,1.340471838378906,3.190466442871094,-4.0669847328244275,-6.510797709923665,2.1713091603053436,0
11781,6.781518322753905,1.0076778076171875,3.089909973144531,-5.654770992366412,-2.701637404580153,3.2858129770992366,0
11806,6.740816894531249,0.9645821777343749,2.86724921875,-5.19675572519084,0.9090496183206108,2.797263358778626,0
11831,6.779124121093749,0.9669763793945312,2.8720376220703123,-2.708206106870229,-0.2207213740458014,1.094973282442748,0
11856,6.831796557617186,0.9550053710937499,2.8983738403320314,-1.2730916030534352,0.8250801526717558,-0.6225839694656489,0
11881,6.850950170898437,1.0004952026367187,2.8049999755859374,-1.5173664122137405,2.7563778625954196,-1.7218206106870229,0
11906,6.9491124389648435,1.0842922607421874,2.7523275390625,-2.219656488549618,1.9472175572519084,-2.889759541984733,0
11931,6.975448657226562,1.1585125122070312,2.77148115234375,-2.5173664122137405,-0.7550725190839693,-4.042431297709924,0
11956,6.9491124389648435,1.2949820068359374,2.9007680419921877,-1.35706106870229,-4.487896946564886,-4.882125954198473,0
11981,6.963477648925781,1.26146318359375,2.9103448486328127,-1.059351145038168,-4.671103053435115,-4.500446564885497,0
12006,6.958689245605467,1.330895031738281,2.9318926635742186,-0.891412213740458,-4.068049618320611,-3.218003816793893,0
12031,6.79109512939453,1.539190576171875,3.094698376464844,0.9024809160305343,-6.823774809160305,-1.7905229007633587,0
12056,6.695327062988281,1.6277760375976562,3.1449766113281252,0.3528625954198473,-2.2359885496183205,-1.2943396946564887,0
12081,6.738422692871093,1.7786107421875,2.9103448486328127,-1.3952290076335876,-0.2665229007633587,-1.8363244274809158,0
12107,6.740816894531249,1.6612948608398437,3.125822998046875,-0.7082061068702291,-1.297057251908397,-2.9737290076335876,0
12132,6.635472021484374,1.5080659545898436,3.15455341796875,2.0017175572519084,-2.8237748091603057,-4.408843511450382,0
12157,6.6881444580078115,1.5248253662109374,3.152159216308594,3.207824427480916,2.2983625954198477,-7.515713740458015,0
12182,7.076005126953125,1.6421412475585937,3.202437451171875,4.558969465648855,8.634240458015267,-12.653118320610687,0
12207,7.35373251953125,1.7091788940429686,3.2910229125976564,8.16202290076336,8.58843893129771,-17.13403435114504,0
12232,7.380068737792969,1.3548370483398435,3.3125707275390623,10.726908396946564,7.26782824427481,-17.729454198473285,0
12257,7.348944116210936,1.3907500732421874,3.4586170288085936,11.505534351145037,7.313629770992366,-13.156935114503817,0
12282,7.339367309570311,1.347654443359375,3.5041068603515626,9.7956106870229,7.680041984732824,-6.347774809160306,0
12307,7.370491931152343,1.560738391113281,3.5184720703125,4.429198473282443,12.321263358778626,-0.8821259541984733,0
12332,7.483019409179687,1.6014398193359374,3.4203098022460936,-1.0822519083969464,8.435767175572519,1.1484083969465648,0
12357,7.483019409179687,1.7019962890624998,3.2886287109375,-5.250190839694657,-3.709270992366412,0.9270343511450382,0
12382,7.20050361328125,1.5751036010742185,3.176101232910156,-8.448664122137405,-12.92301145038168,-0.355408396946565,0
12407,6.915593615722655,1.5463731811523436,2.9486520751953127,-10.654770992366412,-14.495530534351145,-0.9050267175572518,0
12432,6.740816894531249,1.5152485595703125,2.86724921875,-10.570801526717558,-11.381026717557251,-1.1722022900763358,0
12457,6.886863195800781,1.500883349609375,2.8409130004882814,-6.250190839694657,-7.5794999999999995,-2.698919847328244,0
12483,6.781518322753905,1.749880322265625,2.9558346801757813,-1.3799618320610687,-3.6329351145038165,-2.553881679389313,0
12508,6.824613952636718,1.75945712890625,3.00132451171875,1.192557251908397,2.8556145038167937,-1.0195305343511452,0
12533,7.054457312011718,2.039578723144531,3.104275183105469,2.7498091603053436,10.07698854961832,-0.16456870229007647,0
12558,7.226839831542969,1.991694689941406,3.0731505615234376,3.9177480916030536,11.687675572519085,-1.3477748091603052,0
12583,7.310636889648436,1.8241005737304685,3.1114577880859375,5.81087786259542,6.4357671755725185,-2.8134236641221375,0
12608,7.310636889648436,1.6589006591796873,3.3700315673828123,6.085687022900763,6.573171755725191,-2.4775458015267176,0
12633,7.092764538574218,1.4793355346679686,3.355666357421875,4.452099236641221,8.58843893129771,0.35451526717557247,0
12658,7.011361682128906,1.4984891479492186,3.2934171142578124,2.5513358778625954,6.764011450381679,4.217110687022901,0
12683,6.985025463867188,1.4937007446289061,3.279051904296875,-0.2196564885496184,4.741110687022901,6.4690190839694655,0
12708,7.066428320312499,1.5463731811523436,3.3125707275390623,-3.105152671755725,2.6495076335877865,5.827797709923664,0
12733,6.973054455566406,1.6158050292968749,3.166524426269531,-5.769274809160306,-2.0527824427480916,3.23237786259542,0
12758,7.071216723632811,1.6445354492187498,3.085121569824219,-7.837977099236642,-7.090950381679388,0.3850496183206107,0
12783,6.908411010742186,1.5631325927734374,2.9749882934570313,-8.288358778625955,-11.205454198473282,-1.2103702290076335,0
12808,6.805460339355467,1.5367963745117186,2.8600666137695314,-7.586068702290076,-10.930645038167938,-0.9584618320610688,0
12833,6.738422692871093,1.6134108276367187,2.8720376220703123,-4.6242366412213745,-5.251255725190839,-0.11113358778625948,0
12858,6.7623647094726556,1.570315197753906,2.749933337402344,-0.35706106870229015,-2.1825534351145035,0.980469465648855,0
12884,6.700115466308593,1.6421412475585937,2.8648550170898437,3.444465648854962,1.3899656488549619,2.1560419847328243,0
12909,6.846161767578125,1.761851330566406,3.0587853515625,5.322328244274809,6.191492366412215,2.507187022900763,0
12934,6.9706602539062485,1.7091788940429686,3.049208544921875,7.177290076335877,4.298362595419848,1.461385496183206,0
12959,6.848555969238281,1.7355151123046875,3.0324491333007813,7.398664122137404,0.672408396946565,0.5224541984732824,0
12984,6.908411010742186,1.5463731811523436,3.118640393066406,5.757442748091603,0.14569083969465657,-0.8744923664122138,0
13009,6.8748921874999995,1.6253818359374999,3.1593418212890625,4.63530534351145,-2.3199580152671753,-2.2103702290076335,0
13034,7.040092102050781,1.7187557006835936,3.0611795532226562,3.261259541984733,-2.3810267175572517,-4.408843511450382,0
13059,7.145436975097655,1.8648020019531248,2.9773824951171877,3.230725190839695,-3.25125572519084,-6.324874045801527,0
13084,7.102341345214843,1.9055034301757812,3.046814343261719,4.100954198473282,-4.045148854961832,-5.859225190839695,0
13109,7.085581933593748,1.6924194824218748,3.0611795532226562,4.856679389312977,2.1991259541984736,-4.0958664122137405,0
13134,7.226839831542969,1.599045617675781,3.109063586425781,6.215458015267175,6.199125954198474,-1.0500648854961834,0
13159,7.133465966796874,1.500883349609375,3.147370812988281,8.131488549618322,7.344164122137405,1.4003167938931296,0
13184,7.214868823242187,1.4673645263671873,3.087515771484375,8.787977099236642,8.641874045801528,2.8888664122137406,0
13209,7.152619580078125,1.4865181396484375,3.0827273681640626,7.719274809160305,7.550270992366412,3.06443893129771,0
13234,7.202897814941406,1.6062282226562499,3.0923041748046876,5.574236641221374,3.8861488549618324,3.1026068702290077,0
13260,7.107129748535155,1.587074609375,3.037237536621094,2.3833969465648854,-0.8314083969465647,3.2094770992366413,0
13285,6.920382019042967,1.7283325073242186,3.1449766113281252,0.2612595419847328,-5.976446564885496,3.7361946564885495,0
13310,6.834190759277344,1.7474861206054686,3.097092578125,-1.3112595419847328,-8.113851145038167,4.117874045801527,0
13335,6.779124121093749,1.8767730102539062,3.1449766113281252,-2.1967557251908394,-6.281790076335877,3.5758893129770994,0
13360,6.824613952636718,1.9677526733398436,3.027660729980469,-3.0822519083969464,-1.7321717557251906,2.0720725190839695,0
13385,6.953900842285155,2.030001916503906,3.0731505615234376,-3.0975190839694657,3.9014160305343513,-0.385942748091603,0
13410,7.119100756835937,1.9749352783203125,3.240744677734375,1.093320610687023,-0.27415648854961816,-2.0729656488549617,0
13435,6.879680590820311,1.8791672119140623,3.200043249511719,5.719274809160305,-0.9230114503816793,-2.485179389312977,0
13460,6.767153112792967,1.6708716674804687,3.3508779541015623,8.841412213740458,4.038820610687023,-3.1340343511450377,0
13485,6.819825549316406,1.4266630981445312,3.3700315673828123,12.61240458015267,-0.14438549618320606,-4.828690839694657,0
13510,6.5923763916015625,1.587074609375,3.250321484375,8.696374045801527,12.367064885496184,-7.477545801526718,0
13535,6.702509667968749,1.6732658691406248,3.3029939208984374,6.039885496183206,5.0998893129770995,-7.943194656488551,0
13560,6.798277734375,1.9007150268554687,3.317359130859375,0.26889312977099233,3.519736641221374,-8.424110687022901,0
13585,6.999390673828125,1.8480425903320312,3.113851989746094,-4.631870229007634,-2.8390419847328245,-8.59968320610687,0
13610,6.920382019042967,1.8983208251953123,2.9678056884765627,-10.708206106870229,-1.1520190839694657,-9.59968320610687,0
13635,6.934747229003906,2.015636706542969,3.0085071166992186,-10.792175572519085,-10.220721374045802,-10.385942748091603,0
13660,6.980237060546874,2.0802801513671874,3.027660729980469,-10.975381679389313,-8.38866030534351,-10.034797709923664,0
13686,6.941929833984374,2.010848303222656,2.9079506469726564,-9.448664122137405,-6.190187022900764,-9.614950381679389,0
13711,7.09755294189453,2.199990234375,2.86724921875,-5.6242366412213745,-7.3504923664122135,-8.11876717557252,0
13736,7.0831877319335925,2.21914384765625,2.9462578735351563,-0.9295801526717556,-8.319958015267176,-5.3172404580152675,0
13761,6.9515066406249995,2.1640772094726564,3.030054931640625,0.5818702290076335,1.8632480916030536,-2.1264007633587787,0
13786,7.080793530273437,2.1832308227539063,3.1114577880859375,1.0704198473282442,6.397599236641222,1.1255076335877863,0
13811,6.996996472167967,2.2598452758789063,3.128217199707031,1.8185114503816795,4.374698473282443,3.110240458015267,0
13836,6.850950170898437,2.0970395629882814,3.279051904296875,2.948282442748092,1.657141221374046,3.40031679389313,0
13861,6.8772863891601554,2.030001916503906,3.2479272827148438,2.97881679389313,5.733477099236641,2.346881679389313,0
13886,6.884468994140625,2.2622394775390626,3.1689186279296875,2.0475190839694655,7.702942748091603,0.8583320610687023,0
13911,6.999390673828125,2.1592888061523436,3.3652431640625,0.940648854961832,4.92431679389313,-0.6302175572519085,0
13936,6.781518322753905,2.1257699829101564,3.3628489624023437,0.3604961832061069,1.3288969465648857,-2.2561717557251906,0
13961,6.822219750976562,2.018030908203125,3.183283837890625,-0.7387404580152671,0.6495076335877864,-2.988996183206107,0
13986,6.843767565917967,1.8767730102539062,3.3389069458007814,-1.0669847328244275,-1.006980916030534,-3.0729656488549617,0
14011,6.695327062988281,1.800158557128906,3.180889636230469,-3.7692748091603057,7.351797709923664,-2.9279274809160305,0
14036,6.609135803222656,1.9270512451171873,3.00132451171875,-2.8685114503816793,3.206759541984733,-2.3630419847328246,0
14061,6.82940235595703,1.982117883300781,2.9654114868164063,-4.387595419847329,5.283095419847328,-1.9050267175572517,0
14087,7.0233326904296876,2.1114047729492187,3.0444201416015626,-4.357061068702291,2.023553435114504,-3.1416679389312976,0
14112,7.0089674804687485,2.3101235107421876,2.9989303100585936,-4.005916030534351,-0.6940038167938929,-4.164568702290077,0
14137,7.171773193359374,2.1688656127929686,2.972594091796875,-1.1509541984732823,-7.495530534351145,-3.4775458015267176,0
14162,6.999390673828125,2.046761328125,2.9989303100585936,1.1543893129770992,-7.854309160305343,-1.0042633587786258,0
14187,6.903622607421874,2.06591494140625,2.8720376220703123,2.062786259541985,-1.3123244274809158,2.5224541984732824,0
14212,7.028121093749999,2.1975960327148436,2.9845651000976563,3.6276717557251907,2.519736641221374,6.163675572519083,0
14237,6.929958825683593,2.1449235961914064,2.943863671875,5.520801526717557,3.8174465648854965,7.606423664122137,0
14262,6.889257397460937,2.2023844360351563,3.1784954345703125,6.345229007633588,5.6571412213740455,7.614057251908396,0
14287,6.8748921874999995,2.235903259277344,3.0731505615234376,7.207824427480916,6.489202290076335,5.71329389312977,0
14312,6.953900842285155,2.209567041015625,3.176101232910156,9.551335877862595,5.4357671755725185,2.430851145038168,0
14337,6.850950170898437,1.979723681640625,3.4059445922851563,10.742175572519084,4.08462213740458,-0.11876717557251915,0
14362,6.628289416503905,1.979723681640625,3.4586170288085936,10.910114503816793,3.9090496183206107,0.16367557251908393,0
14387,6.922776220703125,1.9509932617187498,3.5065010620117185,9.887213740458014,4.237293893129771,1.2247442748091601,0
14412,6.941929833984374,1.742697717285156,3.3436953491210937,8.345229007633588,2.6418740458015266,1.8888664122137404,0
14437,6.824613952636718,1.9055034301757812,3.3772141723632814,4.658206106870229,2.0693549618320612,3.1026068702290077,0
14462,6.882074792480467,1.9031092285156248,3.3532721557617187,0.8108778625954198,0.16095801526717568,3.6903931297709924,0
14488,6.889257397460937,2.1473177978515627,3.1689186279296875,-2.5479007633587787,-1.564232824427481,2.72856106870229,0
14513,6.934747229003906,1.9246570434570311,2.9414694702148436,-3.7921755725190835,-5.777973282442748,-0.08823282442748093,0
14538,6.901228405761718,2.3005467041015626,2.8433072021484374,-2.555534351145038,-12.434461832061068,-2.1645687022900764,0
14563,6.9131994140624995,1.9007150268554687,2.915133251953125,-4.051717557251909,-9.129118320610687,-4.195103053435115,0
14588,6.853344372558593,2.3436423339843753,2.8049999755859374,-3.608969465648855,-9.648202290076336,-5.072965648854963,0
14613,7.095158740234374,2.190413427734375,2.96301728515625,-2.69293893129771,-6.526064885496183,-5.966095419847329,0
14638,6.884468994140625,2.274210485839844,2.8840086303710937,0.15438931297709924,-6.220721374045802,-4.62258396946565,0
14663,6.985025463867188,2.030001916503906,3.0420259399414062,1.9864503816793895,-5.816141221374046,-1.0424312977099235,0
14688,6.819825549316406,2.075491748046875,3.259898291015625,1.1849236641221372,1.0998893129770995,3.5758893129770994,0
14713,7.068822521972655,2.326882922363281,2.9869593017578127,-1.5860687022900763,7.970118320610688,5.865965648854962,0
14738,7.049668908691406,2.030001916503906,3.34608955078125,0.391030534351145,1.2907290076335878,6.079706106870229,0
14763,6.793489331054686,2.1760482177734377,3.106669384765625,2.0322519083969466,0.6647748091603054,6.033904580152671,0
14788,6.920382019042967,2.1928076293945313,3.171312829589844,3.1849236641221377,6.603706106870229,5.323980916030534,0
14813,6.961083447265625,1.9940888916015624,3.106669384765625,4.688740458015267,4.687675572519084,4.606423664122137,0
14838,6.882074792480467,1.9294454467773436,3.1497650146484375,6.787977099236641,2.2143931297709925,4.06443893129771,0
14863,6.7647589111328115,1.807341162109375,3.1593418212890625,6.787977099236641,4.931950381679389,4.094973282442748,0
14888,6.79109512939453,2.0922511596679687,3.03963173828125,6.245992366412214,3.603706106870229,4.934667938931297,0
14914,6.882074792480467,1.742697717285156,3.099486779785156,3.81087786259542,3.038820610687023,5.430851145038168,0
14939,6.908411010742186,1.819312170410156,3.1689186279296875,0.4979007633587786,2.0311870229007636,4.38504961832061,0
14964,6.994602270507811,1.9150802368164062,3.097092578125,-2.441030534351145,0.13042366412213746,2.2400114503816795,0
14989,7.040092102050781,1.8624078002929687,2.9654114868164063,-3.937213740458015,-6.854309160305343,-0.6607519083969465,0
15014,6.898834204101562,1.9007150268554687,2.8504898071289064,-4.334160305343512,-11.55659923664122,-2.798156488549618,0
15039,6.779124121093749,1.8528309936523437,2.9414694702148436,-3.7692748091603057,-10.396293893129771,-3.3859427480916033,0
15064,6.807854541015625,1.8815614135742187,2.8720376220703123,-2.5631679389312976,-4.777973282442748,-3.3706755725190836,0
15089,6.98263126220703,1.982117883300781,2.8337303955078124,0.26889312977099233,-2.9535458015267175,-3.3859427480916033,0
15114,7.092764538574218,1.9198686401367187,2.9414694702148436,3.3986641221374048,-2.686370229007634,-2.553881679389313,0
15139,7.044880505371093,1.9773294799804686,2.9390752685546877,5.406297709923664,1.8479809160305345,-0.5004465648854962,0
15164,7.066428320312499,2.015636706542969,2.9701998901367186,6.352862595419847,5.535003816793893,2.1865763358778625,0
15189,6.98263126220703,2.010848303222656,3.046814343261719,7.513167938931297,6.535003816793893,4.8965,0
15214,7.030515295410155,2.1114047729492187,3.0539969482421876,8.459732824427482,9.023553435114504,4.583522900763358,0
15239,7.068822521972655,2.3149119140625,3.2862345092773437,8.406297709923665,10.153324427480916,3.2247442748091606,0
15264,7.0233326904296876,2.2071728393554686,3.3341185424804687,8.772709923664122,8.794545801526718,1.4384847328244275,0
15290,6.8772863891601554,2.25745107421875,3.4059445922851563,9.291793893129771,7.58080534351145,1.094973282442748,0
15315,6.79109512939453,1.9773294799804686,3.374819970703125,8.207824427480917,10.504469465648855,1.6903931297709924,0
15340,6.779124121093749,1.9414164550781248,3.3820025756835936,7.123854961832061,11.145690839694657,2.7132938931297708,0
15365,6.63786622314453,1.8552251953124999,3.4418576171875,6.383396946564885,9.26019465648855,3.446118320610687,0
15390,6.601953198242186,1.7786107421875,3.42270400390625,4.429198473282443,8.008286259541984,3.850698473282443,0
15415,6.712086474609374,1.8624078002929687,3.3245417358398437,1.30706106870229,7.344164122137405,2.9881030534351147,0
15440,6.822219750976562,1.9318396484374998,3.2886287109375,-1.837977099236641,2.5960725190839695,0.362148854961832,0
15465,6.956295043945311,1.9270512451171873,3.2934171142578124,-3.6853053435114504,-4.984080152671755,-2.43937786259542,0
15490,6.798277734375,1.8791672119140623,3.259898291015625,-5.265458015267176,-8.045148854961832,-3.9355610687022904,0
15515,6.831796557617186,1.9342338500976561,3.17370703125,-6.242557251908397,-6.190187022900764,-3.981362595419847,0
15540,6.884468994140625,1.8935324218749998,3.068362158203125,-4.69293893129771,-5.961179389312978,-3.4928129770992364,0
15565,6.855738574218749,1.8480425903320312,3.1353998046875,-1.35706106870229,-5.518431297709924,-2.2638053435114505,0
15590,6.779124121093749,1.7762165405273436,3.089909973144531,1.0704198473282442,-0.9688129770992364,0.16367557251908393,0
15615,6.886863195800781,1.800158557128906,3.1497650146484375,2.3146946564885496,5.985385496183206,2.110240458015267,0
15641,7.05924571533203,2.020425109863281,3.26947509765625,3.6811068702290077,7.229660305343511,2.774362595419847,0
15666,7.0257268920898435,1.9581758666992186,3.34608955078125,5.108587786259542,3.2143931297709925,3.56062213740458,0
15691,6.798277734375,1.8049469604492185,3.3245417358398437,2.711641221374046,4.298362595419848,4.988103053435114,0
15716,7.004179077148437,1.9485990600585936,3.5041068603515626,0.29942748091603055,7.664774809160306,5.087339694656488,0
15741,7.133465966796874,2.075491748046875,3.5902981201171875,0.23072519083969464,8.550270992366412,3.5987900763358778,0
15766,7.078399328613281,2.1066163696289064,3.76746904296875,1.7956106870229007,3.26019465648855,3.4919198473282442,0
15791,6.9515066406249995,2.039578723144531,3.6573357666015625,1.4291984732824428,2.802179389312977,3.995736641221374,0
15816,6.853344372558593,1.9270512451171873,3.592692321777344,-0.2196564885496184,2.557904580152672,5.011003816793893,0
15841,6.724057482910156,1.7379093139648436,3.525654675292969,-1.624236641221374,0.0006526717557253647,5.865965648854962,0
15866,6.664202441406249,1.6828426757812498,3.4849532470703126,-3.1509541984732823,0.11515648854961835,6.110240458015267,0
15891,6.659414038085937,1.6541122558593748,3.403550390625,-5.784541984732825,-0.5794999999999999,5.079706106870229,0
15916,6.633077819824218,1.6493238525390623,3.3772141723632814,-8.059351145038168,-5.999347328244275,3.9041335877862595,0
15941,6.537309753417968,1.6086224243164062,3.393973583984375,-10.425763358778626,-7.182553435114503,1.9346679389312977,0
15966,6.728845886230467,1.589468811035156,3.171312829589844,-11.776908396946565,-6.3428587786259545,-0.4088435114503818,0
15991,6.90601680908203,1.828888977050781,3.133005603027344,-11.135687022900763,-7.808507633587785,-2.9279274809160305,0
16017,7.090370336914062,1.8145237670898435,3.185678039550781,-8.914312977099238,-9.472629770992366,-5.324874045801527,0
16042,6.977842858886718,1.8025527587890624,3.0348433349609376,-7.02881679389313,-11.694003816793893,-4.859225190839695,0
16067,6.733634289550781,1.6996020874023436,2.9294984619140627,-6.418129770992366,-10.342858778625954,-1.7981564885496182,0
16092,6.903622607421874,1.771428137207031,2.9606230834960936,-5.9524809160305345,-4.274156488549618,0.37741603053435113,0
16117,7.02093848876953,1.7259383056640625,2.9869593017578127,-3.441030534351145,-3.258889312977099,0.5682557251908397,0
16142,6.922776220703125,1.7929759521484374,3.070756359863281,-1.1814885496183205,-3.022248091603053,1.163675572519084,0
16167,6.9515066406249995,1.8719846069335937,3.046814343261719,-0.3799618320610687,1.504469465648855,0.5606221374045801,0
16192,7.267541259765625,1.8360715820312499,3.1401882080078125,-0.18148854961832062,1.6189732824427483,-1.1187671755725188,0
16217,7.140648571777343,1.9749352783203125,3.202437451171875,1.0475190839694655,-4.991713740458016,-1.1874694656488547,0
16242,7.126283361816406,1.970146875,3.200043249511719,-0.1662213740458015,-2.7321717557251906,-0.9813625954198474,0
16267,6.980237060546874,2.056338134765625,3.0611795532226562,-0.8379770992366412,-1.678736641221374,-0.721820610687023,0
16292,6.858132775878906,1.819312170410156,3.0085071166992186,-0.47156488549618325,-3.7398053435114504,0.9423015267175572,0
16317,6.633077819824218,1.6253818359374999,3.068362158203125,-0.608969465648855,-2.694003816793893,2.812530534351145,0
16343,6.589982189941405,1.5942572143554685,3.1449766113281252,-2.8303435114503817,7.504469465648855,3.079706106870229,0
16368,6.86770958251953,1.5751036010742185,2.9773824951171877,-3.1585877862595417,2.58843893129771,1.461385496183206,0
16393,6.958689245605467,1.761851330566406,3.0037187133789063,-5.051717557251909,0.9930190839694657,-1.76762213740458,0
16418,6.980237060546874,1.56792099609375,2.773875354003906,-4.547900763358779,-9.205454198473282,-4.233270992366412,0
16443,6.795883532714844,1.6014398193359374,2.9582288818359377,-3.6700381679389316,-9.106217557251908,-4.966095419847329,0
16468,6.989813867187499,1.4721529296874998,2.9462578735351563,-3.0364503816793893,-3.6100343511450377,-4.6378511450381685,0
16493,7.128677563476562,1.6780542724609373,2.88640283203125,-1.8074427480916029,-0.2207213740458014,-4.500446564885497,0
16518,7.348944116210936,1.819312170410156,2.9294984619140627,0.3528625954198473,-2.58713358778626,-3.6912862595419846,0
16543,7.217263024902343,1.7953701538085935,2.876826025390625,1.8948473282442748,-3.0604160305343506,-1.2409045801526717,0
16568,7.138254370117187,1.7953701538085935,2.9797766967773436,1.7650763358778625,1.573171755725191,1.8965,0
16593,7.131071765136718,1.9414164550781248,2.9965361083984376,1.5666030534351143,6.328896946564885,3.8735992366412213,0
16618,7.037697900390625,2.001271496582031,3.0923041748046876,2.9406488549618324,3.351797709923664,4.698026717557251,0
16643,6.975448657226562,1.9438106567382811,3.106669384765625,1.5971374045801525,4.680041984732824,4.461385496183206,0
16668,6.910805212402344,1.6804484741210937,3.195254846191406,1.108587786259542,2.825080152671756,2.8735992366412213,0
16693,6.807854541015625,1.6636890624999998,3.185678039550781,0.45973282442748087,1.7334770992366413,1.3239809160305342,0
16719,7.0089674804687485,1.6684774658203123,3.099486779785156,-2.1967557251908394,3.6953091603053436,-1.5157137404580152,0
16744,7.071216723632811,1.6253818359374999,3.046814343261719,-2.670038167938931,-4.3581259541984725,-4.0882328244274815,0
16769,6.891651599121093,1.5463731811523436,3.0587853515625,-2.1356870229007634,-10.793240458015267,-5.0958664122137405,0
16794,6.963477648925781,1.512854357910156,2.92471005859375,-3.4639312977099235,-6.602400763358778,-4.737087786259543,0
16819,7.128677563476562,1.6349586425781248,2.9773824951171877,-4.631870229007634,-3.548965648854962,-3.622583969465649,0
16844,7.133465966796874,1.6110166259765624,2.7978173706054688,-4.998282442748092,-4.152019083969465,-2.5080801526717558,0
16869,7.162196386718748,1.6421412475585937,2.8073941772460937,-3.2120229007633587,-5.487896946564886,-1.8363244274809158,0
16894,7.068822521972655,1.522431164550781,2.8624608154296873,-0.2807251908396947,-3.335225190839694,-1.4088435114503817,0
16919,7.145436975097655,1.5631325927734374,2.943863671875,2.421564885496183,0.16859160305343512,-0.2256374045801527,0
16944,7.181349999999999,1.6445354492187498,3.1114577880859375,4.673473282442748,1.9777519083969466,0.9423015267175572,0
16969,7.155013781738281,1.6062282226562499,3.097092578125,5.719274809160305,3.8785152671755725,1.9499351145038166,0
16994,7.1214949584960925,1.5727093994140624,3.070756359863281,4.100954198473282,7.168591603053436,3.4232175572519083,0
17019,7.085581933593748,1.7091788940429686,3.2479272827148438,1.704007633587786,7.328896946564885,4.377416030534351,0
17044,7.1957152099609365,1.771428137207031,3.4011561889648436,0.8948473282442748,5.382332061068702,4.163675572519084,0
17069,7.207686218261718,2.039578723144531,3.4753764404296876,0.26889312977099233,3.634240458015267,3.1178740458015266,0
17095,7.255570251464843,2.056338134765625,3.3436953491210937,-0.9830152671755726,2.7869122137404583,2.3774160305343512,0
17120,7.226839831542969,2.058732336425781,3.4155213989257813,-1.738740458015267,1.8174465648854963,1.797263358778626,0
17145,7.102341345214843,1.9342338500976561,3.4011561889648436,-1.6700381679389311,0.16859160305343512,3.087339694656489,0
17170,6.8748921874999995,1.7235441040039061,3.2934171142578124,-2.7311068702290076,0.672408396946565,5.781996183206107,0
17195,6.702509667968749,1.6014398193359374,3.228773669433594,-3.837977099236641,1.573171755725191,8.24001145038168,0
17220,6.496608325195312,1.330895031738281,3.142582409667969,-4.6242366412213745,0.8403473282442749,9.606423664122136,0
17245,6.381686645507812,1.251886376953125,3.065967956542969,-6.654770992366412,0.8632480916030535,9.301080152671755,0
17270,6.451118493652342,1.3356834350585935,2.9486520751953127,-10.013549618320612,1.489202290076336,6.201843511450381,0
17295,6.75278790283203,1.3165298217773436,2.80978837890625,-11.70057251908397,-3.358125954198473,0.011003816793893062,0
17320,6.819825549316406,1.3596254516601562,2.7978173706054688,-10.570801526717558,-11.373393129770992,-6.408843511450382,0
17345,6.817431347656249,1.35723125,2.697260900878906,-8.921946564885497,-13.953545801526717,-10.393576335877864,0
17370,6.989813867187499,1.5631325927734374,2.6613478759765625,-7.54026717557252,-9.991713740458014,-10.958461832061069,0
17395,7.17416739501953,1.6684774658203123,2.6661362792968752,-4.334160305343512,-7.220721374045802,-9.668385496183207,0
17420,7.169378991699218,1.761851330566406,2.8361245971679687,-0.06698473282442752,-6.396293893129771,-6.62258396946565,0
17446,7.178955798339843,1.6517180541992187,2.8241535888671874,2.589503816793893,-3.1901870229007634,-2.134034351145038,0
17471,7.123889160156248,1.6349586425781248,2.8313361938476564,3.5666030534351147,1.023553435114504,1.5071870229007633,0
17496,7.0999471435546875,1.56792099609375,2.8121825805664065,3.7040076335877865,5.481568702290076,4.1255076335877865,0
17521,7.126283361816406,1.6756600708007812,2.9510462768554686,4.13912213740458,6.130423664122137,4.995736641221374,0
17546,7.030515295410155,1.7833991455078124,3.0132955200195313,4.459732824427481,6.054087786259542,3.316347328244275,0
17571,7.126283361816406,1.7474861206054686,3.0731505615234376,5.528435114503816,4.702942748091603,0.7285610687022901,0
17596,7.131071765136718,1.8360715820312499,3.2072258544921874,5.994083969465649,3.6800419847328247,-1.538614503816794,0
17621,7.052063110351562,1.6852368774414062,3.2263794677734374,5.849045801526717,2.9624847328244277,-1.5615152671755723,0
17646,7.013755883789062,1.6325644409179687,3.3293301391601564,4.360496183206107,3.0846221374045806,-0.09586641221374048,0
17671,6.977842858886718,1.51046015625,3.2646866943359374,2.2154580152671755,3.2907290076335878,2.0033702290076336,0
17696,6.9131994140624995,1.3763848632812499,3.128217199707031,0.0780534351145038,1.6495076335877863,3.2629122137404583,0
17721,6.817431347656249,1.3261066284179686,3.087515771484375,-2.0822519083969464,-0.06804961832061052,3.369782442748092,0
17746,6.889257397460937,1.3907500732421874,3.030054931640625,-5.158587786259543,0.008286259541984808,1.743828244274809,0
17771,6.757576306152344,1.3811732666015624,2.857672412109375,-7.746374045801527,-3.342858778625954,-0.5844160305343512,0
17796,6.98263126220703,1.4865181396484375,2.6757130859375002,-9.647137404580153,-5.823774809160305,-3.3554083969465647,0
17822,7.068822521972655,1.6589006591796873,2.620646447753906,-9.120419847328245,-7.3581259541984725,-6.27907251908397,0
17847,7.035303698730467,1.5152485595703125,2.61825224609375,-4.761641221374046,-9.610034351145037,-7.943194656488551,0
17872,7.040092102050781,1.6181992309570312,2.706837707519531,-0.08225190839694663,-4.968812977099237,-7.401209923664123,0
17897,7.102341345214843,1.5918630126953124,2.73317392578125,4.14675572519084,0.2678282442748092,-5.011896946564886,0
17922,7.095158740234374,1.6158050292968749,2.86724921875,6.574236641221374,3.5731717557251907,-1.4470114503816793,0
17947,7.131071765136718,1.6972078857421873,2.876826025390625,6.337595419847328,6.802179389312977,1.743828244274809,0
17972,7.178955798339843,1.6996020874023436,3.056391149902344,5.849045801526717,6.977751908396947,3.4384847328244277,0
17997,6.975448657226562,1.7450919189453125,2.9797766967773436,4.780343511450381,5.947217557251909,3.4766526717557253,0
18022,6.980237060546874,1.8648020019531248,3.0324491333007813,3.2001908396946566,6.183858778625954,2.507187022900763,0
18047,7.0089674804687485,1.8887440185546873,3.0348433349609376,2.7727099236641224,6.6418740458015275,0.3468816793893129,0
18072,6.920382019042967,1.8648020019531248,3.0611795532226562,4.581870229007634,2.8479809160305347,-2.004263358778626,0
18097,6.822219750976562,1.8743788085937498,3.195254846191406,5.3757633587786255,2.367064885496183,-3.2409045801526717,0
18122,6.896440002441406,1.6636890624999998,3.252715686035156,5.841412213740457,2.6418740458015266,-3.6912862595419846,0
18147,6.961083447265625,1.6565064575195312,3.2718692993164065,5.284160305343511,3.3136297709923666,-3.3706755725190836,0
18172,7.133465966796874,1.6493238525390623,3.204831652832031,3.3223282442748094,1.6113396946564886,-2.9584618320610687,0
18198,7.107129748535155,1.6325644409179687,3.1689186279296875,-0.11278625954198473,-1.3504923664122135,-2.0729656488549617,0
18223,7.044880505371093,1.6756600708007812,3.087515771484375,-3.2349236641221375,-3.457362595419847,-1.2943396946564887,0
18248,7.109523950195311,1.7235441040039061,3.19286064453125,-4.265458015267176,-3.3810267175572517,-1.8973931297709923,0
18273,7.186138403320311,1.6780542724609373,3.03963173828125,-3.0364503816793893,-4.999347328244275,-2.8592251908396946,0
18298,7.006573278808593,1.7019962890624998,2.8744318237304687,-1.6089694656488547,-4.999347328244275,-2.286706106870229,0
18323,6.917987817382811,1.6493238525390623,3.0180839233398435,-0.525,-1.8161412213740458,-0.5386145038167939,0
18348,7.05924571533203,1.7355151123046875,3.0037187133789063,0.10858778625954196,3.374698473282443,0.04153816793893128,0
18373,7.188532604980469,1.7570629272460936,3.0180839233398435,1.7269083969465648,0.8403473282442749,-0.0271641221374046,0
18398,7.064034118652343,1.7211499023437498,3.1210345947265625,2.30706106870229,-0.7245381679389311,0.446118320610687,0
18423,6.961083447265625,1.6684774658203123,3.133005603027344,1.1467557251908396,3.3059961832061067,2.06443893129771,0
18448,6.917987817382811,1.771428137207031,3.161736022949219,0.34522900763358777,3.702942748091603,3.919400763358779,0
18473,7.066428320312499,1.788187548828125,3.233562072753906,-1.1585877862595422,3.5960725190839695,3.7667290076335878,0
18498,7.037697900390625,1.9198686401367187,3.243138879394531,-1.792175572519084,1.489202290076336,2.0186374045801525,0
18524,7.001784875488281,1.8767730102539062,3.2766577026367187,-2.2120229007633587,-1.0833167938931298,-0.21800381679389325,0
18549,6.992208068847655,1.8121295654296874,3.176101232910156,-3.0364503816793893,-1.4726297709923664,-2.080599236641221,0
18574,6.920382019042967,1.749880322265625,3.0587853515625,-3.3646946564885494,-1.4802633587786258,-2.9737290076335876,0
18599,6.968266052246093,1.6014398193359374,2.8528840087890623,-3.341793893129771,0.237293893129771,-2.4012099236641222,0
18624,6.992208068847655,1.589468811035156,2.9271042602539064,-2.8150763358778623,2.1151564885496184,-1.8057900763358776,0
18649,6.90601680908203,1.5056717529296875,2.9558346801757813,-1.7692748091603052,1.4357671755725192,-1.0118969465648857,0
18674,6.908411010742186,1.4625761230468748,2.9893535034179686,-1.8837786259541982,3.160958015267176,-0.2867061068702291,0
18699,6.985025463867188,1.587074609375,2.9127390502929686,-2.6776717557251906,3.985385496183206,-0.14930152671755736,0
18724,7.004179077148437,1.6828426757812498,2.8600666137695314,-3.3494274809160305,1.7334770992366413,-1.4622786259541982,0
18749,7.107129748535155,1.6732658691406248,2.9558346801757813,-3.960114503816794,0.3517977099236642,-3.2714389312977095,0
18774,7.1598021850585924,1.7738223388671874,2.9510462768554686,-2.9295801526717558,-0.793240458015267,-4.408843511450382,0
18799,7.219657226562499,1.7546687255859374,3.094698376464844,-2.3036259541984734,-0.6024007633587787,-4.240904580152672,0
18824,6.963477648925781,1.7570629272460936,2.9510462768554686,-0.8456106870229009,-4.938278625954199,-1.8744923664122135,0
18850,6.810248742675781,1.5080659545898436,2.9486520751953127,-1.5631679389312976,-1.297057251908397,2.7209274809160306,0
18875,6.803066137695311,1.6205934326171874,2.9941419067382813,-3.2043893129770993,9.588438931297711,4.827797709923664,0
18900,7.17416739501953,1.809735363769531,2.9366810668945313,-1.4181297709923664,8.741110687022902,3.2705458015267177,0
18925,7.243599243164062,1.9031092285156248,3.0180839233398435,1.1772900763358778,-1.5031641221374046,0.14077480916030527,0
18950,7.028121093749999,1.7187557006835936,3.204831652832031,2.0322519083969466,-2.1901870229007634,-1.5920496183206105,0
18975,6.858132775878906,1.7738223388671874,3.085121569824219,1.0246183206106871,1.58843893129771,-0.6531183206106871,0
19000,7.013755883789062,1.75945712890625,3.133005603027344,0.8185114503816794,2.809812977099237,0.5758893129770992,0
19025,7.140648571777343,1.8839556152343748,3.2958113159179687,1.3833969465648854,2.061721374045802,0.6980267175572519,0
19050,6.965871850585937,1.7953701538085935,3.1976490478515625,1.4673664122137404,0.6876755725190841,0.8965,0
19075,6.90601680908203,1.6301702392578123,3.2072258544921874,0.6658396946564885,0.5350038167938932,1.4690190839694655,0
19100,6.963477648925781,1.6038340209960937,3.185678039550781,-0.3494274809160306,0.9243167938931298,2.0415381679389313,0
19125,6.872497985839844,1.532007971191406,3.106669384765625,-1.639503816793893,0.8861488549618322,2.2705458015267177,0
19150,6.853344372558593,1.560738391113281,3.0444201416015626,-2.6776717557251906,-0.18255343511450373,1.7514618320610686,0
19175,6.886863195800781,1.7163614990234373,2.9654114868164063,-2.822709923664122,-1.5795,0.39268320610687024,0
19200,6.977842858886718,1.7019962890624998,3.085121569824219,-2.1967557251908394,-3.9764465648854963,-1.653118320610687,0
19226,6.901228405761718,1.7091788940429686,3.080333166503906,-1.952480916030534,-5.800874045801526,-1.866858778625954,0
19251,6.870103784179686,1.7283325073242186,2.934286865234375,-3.273091603053435,-3.25125572519084,-0.5996832061068703,0
19276,7.044880505371093,1.8049469604492185,2.9558346801757813,-3.5860687022900763,-2.6176679389312976,0.11024045801526716,0
19301,7.030515295410155,1.7762165405273436,2.8983738403320314,-1.4028625954198475,-3.9382786259541986,-0.1569351145038168,0
19326,6.886863195800781,1.7019962890624998,3.030054931640625,0.5513358778625954,-3.4878969465648857,0.19420992366412215,0
19351,6.920382019042967,1.6780542724609373,2.943863671875,1.1162213740458014,-2.4726297709923664,1.1255076335877863,0
19376,6.843767565917967,1.6181992309570312,2.9869593017578127,1.1772900763358778,-1.724538167938931,1.9499351145038166,0
19401,6.834190759277344,1.551161584472656,2.9678056884765627,1.4444656488549619,1.6418740458015268,1.3239809160305342,0
19426,7.064034118652343,1.781004943847656,3.097092578125,2.1314885496183207,2.5502709923664124,-0.9431946564885497,0
19451,7.183744201660155,1.9557816650390623,3.094698376464844,3.574236641221374,-1.297057251908397,-3.324874045801527,0
19476,7.214868823242187,1.9653584716796872,3.2718692993164065,3.4826335877862595,-2.0680496183206105,-4.0958664122137405,0
19501,7.090370336914062,1.9150802368164062,3.2910229125976564,2.9635496183206107,-1.8695763358778623,-1.7905229007633587,0
19526,6.999390673828125,1.771428137207031,3.3149649291992187,1.6047709923664124,0.49683587786259553,1.1407748091603054,0
19551,6.975448657226562,1.6612948608398437,3.137794006347656,0.14675572519083968,2.4968358778625954,3.247645038167939,0
19576,6.853344372558593,1.5918630126953124,3.1449766113281252,-0.8990458015267176,0.4205000000000001,3.6522251908396948,0
19602,6.707298071289062,1.4362399047851562,3.1114577880859375,-2.3723282442748093,0.04645419847328247,2.6216908396946565,0
19627,6.757576306152344,1.4769413330078123,2.9654114868164063,-4.357061068702291,-1.1596526717557252,0.19420992366412215,0
19652,6.860526977539062,1.560738391113281,2.9486520751953127,-5.448664122137405,-4.174919847328244,-3.118767175572519,0
19677,6.889257397460937,1.6397470458984373,2.88640283203125,-6.02881679389313,-6.327591603053435,-5.843958015267176,0
19702,6.968266052246093,1.7379093139648436,2.7666927490234374,-6.983015267175573,-8.297057251908397,-7.462278625954198,0
19727,6.886863195800781,1.769033935546875,2.735568127441406,-6.486832061068703,-9.869576335877863,-7.019530534351145,0
19752,6.822219750976562,1.6014398193359374,2.678107287597656,-4.906679389312978,-7.281790076335877,-5.309606870229008,0
19777,6.985025463867188,1.7163614990234373,2.769086950683594,-2.311259541984733,-0.5642328244274808,-3.416477099236641,0
19802,7.145436975097655,1.8504367919921874,2.838518798828125,0.5131679389312976,2.0769885496183207,-3.43937786259542,0
19827,7.293877478027343,1.9485990600585936,2.9031622436523437,3.1849236641221377,2.519736641221374,-3.866858778625954,0
19852,7.372886132812499,1.8815614135742187,2.96301728515625,3.7498091603053436,2.817446564885496,-3.3859427480916033,0
19877,7.207686218261718,1.8504367919921874,3.0085071166992186,3.3375954198473283,3.031187022900763,-1.7981564885496182,0
19902,7.190926806640625,1.8480425903320312,3.109063586425781,2.497900763358779,3.9090496183206107,-0.30197328244274824,0
19927,7.186138403320311,1.8049469604492185,3.094698376464844,0.658206106870229,5.412866412213741,0.11024045801526716,0
19952,7.274723864746092,1.7043904907226561,3.0252665283203126,0.26889312977099233,1.6418740458015268,-0.5844160305343512,0
19978,7.226839831542969,1.6421412475585937,3.010901318359375,-0.5555343511450382,-0.8543091603053434,-1.2561717557251906,0
20003,7.143042773437499,1.6948136840820311,3.0037187133789063,-2.387595419847328,-2.1672862595419846,-0.2409045801526718,0
20028,7.064034118652343,1.7450919189453125,2.9893535034179686,-3.868511450381679,-3.9688129770992364,1.9270343511450383,0
20053,7.032909497070311,1.79776435546875,2.92471005859375,-4.70057251908397,-0.7779732824427481,2.8735992366412213,0
20078,6.975448657226562,1.8863498168945312,2.764298547363281,-4.540267175572519,-1.9764465648854963,2.4384847328244272,0
20103,6.910805212402344,1.6804484741210937,2.7188087158203125,-2.9295801526717558,-5.5642328244274815,0.8659656488549617,0
20128,6.858132775878906,1.7450919189453125,2.8696434204101564,-2.4868320610687022,-1.2512557251908394,-0.469912213740458,0
20153,6.956295043945311,1.7355151123046875,2.8337303955078124,-0.975381679389313,-1.4191946564885494,-0.7599885496183206,0
20178,7.035303698730467,1.7642455322265624,2.92471005859375,0.9482824427480916,-0.21308778625954194,-0.37830916030534356,0
20203,6.975448657226562,1.788187548828125,2.9510462768554686,2.879580152671756,2.603706106870229,0.5377213740458016,0
20228,7.0233326904296876,1.9031092285156248,2.9941419067382813,2.9330152671755725,5.412866412213741,1.7590954198473283,0
20253,7.133465966796874,2.0539439331054687,3.113851989746094,2.3681297709923665,5.260194656488549,1.9499351145038166,0
20278,7.114312353515625,1.9294454467773436,3.087515771484375,1.589503816793893,2.2983625954198477,0.8735992366412213,0
20303,6.961083447265625,1.8648020019531248,3.0827273681640626,-0.25782442748091605,1.8861488549618322,0.15604198473282438,0
20328,6.941929833984374,1.8121295654296874,3.0635737548828126,-1.7845419847328245,2.0998893129770995,-0.3248740458015268,0
20354,6.8748921874999995,1.7762165405273436,2.9558346801757813,-2.35706106870229,1.0540877862595421,-1.0118969465648857,0
20379,6.941929833984374,1.730726708984375,2.8624608154296873,-2.120419847328244,0.0922557251908398,-1.5233473282442747,0
20404,6.738422692871093,1.587074609375,2.857672412109375,-1.9830152671755723,-1.0985839694656487,-0.9737290076335877,0
20429,6.697721264648437,1.5176427612304686,2.8552782104492187,-3.631870229007634,1.8632480916030536,0.10260687022900761,0
20454,6.980237060546874,1.7187557006835936,2.761904345703125,-4.776908396946565,3.351797709923664,-1.3554083969465647,0
20479,7.298665881347655,1.8121295654296874,2.759510144042969,-3.654770992366412,-3.1596526717557247,-5.27907251908397,0
20504,7.169378991699218,1.8025527587890624,2.819365185546875,-1.2807251908396946,-8.663469465648854,-7.500446564885497,0
20529,7.1574079833984365,1.7929759521484374,2.895979638671875,-0.40286259541984737,-4.716904580152672,-5.935561068702291,0
20554,7.0472747070312485,1.8408599853515624,2.9294984619140627,0.4215648854961832,-0.7169045801526717,-1.8286908396946564,0
20579,7.085581933593748,1.8336773803710935,2.9869593017578127,1.8414122137404578,2.1151564885496184,1.9270343511450383,0
20604,6.965871850585937,1.79776435546875,3.0037187133789063,3.062786259541985,3.657141221374046,4.293446564885496,0
20629,7.0233326904296876,1.6445354492187498,2.9462578735351563,3.658206106870229,4.076988549618321,4.820164122137404,0
20654,6.941929833984374,1.7091788940429686,2.9965361083984376,3.062786259541985,4.25256106870229,3.614057251908397,0
20679,7.016150085449218,1.8695904052734373,3.0516027465820312,2.7040076335877865,2.870881679389313,1.9041335877862595,0
20705,7.02093848876953,1.8264947753906249,3.17370703125,2.0551526717557254,0.28309541984732833,0.049171755725190835,0
20730,7.128677563476562,1.8576193969726562,3.209620056152344,0.3146946564885496,-0.09858396946564874,-1.2103702290076335,0
20755,7.1214949584960925,1.9055034301757812,3.1353998046875,-1.173854961832061,0.12279007633587802,-1.7905229007633587,0
20780,7.190926806640625,1.8432541870117185,3.17370703125,-1.1356870229007634,-2.2665229007633587,-1.5691488549618322,0
20805,6.973054455566406,1.771428137207031,3.0228723266601563,-1.837977099236641,-0.8772099236641222,0.3468816793893129,0
20830,6.965871850585937,1.6421412475585937,3.00132451171875,-1.8456106870229005,1.8403473282442748,2.262912213740458,0
20855,6.889257397460937,1.6852368774414062,2.9773824951171877,-1.4639312977099235,1.3059961832061069,3.514820610687023,0
20880,6.927564624023437,1.6541122558593748,2.9007680419921877,-2.7616412213740458,2.5960725190839695,2.7361946564885495,0
20905,6.941929833984374,1.7546687255859374,2.790634765625,-3.1509541984732823,-1.4420954198473281,0.9041335877862595,0
20930,6.812642944335937,1.7139672973632811,2.7475391357421874,-3.9143129770992364,-3.800874045801527,-1.1111335877862594,0
20955,6.896440002441406,1.781004943847656,2.7092319091796875,-5.5173664122137405,-1.6405687022900763,-3.2638053435114505,0
20980,7.171773193359374,1.8408599853515624,2.6421942626953125,-3.6929389312977094,-5.205454198473282,-5.1035,0
21005,7.143042773437499,1.8719846069335937,2.6421942626953125,-1.2120229007633587,-8.197820610687023,-5.309606870229008,0
21030,7.037697900390625,1.79776435546875,2.697260900878906,0.5513358778625954,-3.350492366412214,-2.286706106870229,0
21056,6.980237060546874,1.8312831787109374,2.7379623291015625,3.6353053435114506,1.1609580152671757,1.6598587786259542,0
21081,7.035303698730467,1.9078976318359373,2.8744318237304687,5.681106870229007,6.840347328244276,4.362148854961832,0
21106,7.0999471435546875,2.0347903198242188,2.8720376220703123,6.322328244274809,9.145690839694657,4.331614503816794,0
21131,7.087976135253906,1.962964270019531,3.03963173828125,6.536068702290076,4.176225190839695,2.583522900763359,0
21156,6.996996472167967,1.8887440185546873,3.1593418212890625,6.581870229007634,3.2372938931297712,0.12550763358778627,0
21181,6.891651599121093,1.8145237670898435,3.164130224609375,5.513167938931297,3.8861488549618324,-1.0500648854961834,0
21206,6.975448657226562,1.6756600708007812,3.2120142578125,3.2536259541984736,2.489202290076336,-1.1645687022900764,0
21231,7.013755883789062,1.6732658691406248,3.1449766113281252,0.5360687022900763,2.2601946564885496,-0.6531183206106871,0
21257,7.092764538574218,1.742697717285156,3.1018809814453125,-1.1204198473282445,0.6647748091603054,-0.6989198473282444,0
21282,6.953900842285155,1.7211499023437498,2.9414694702148436,-2.273091603053435,-1.5947671755725188,-0.20273664122137414,0
21307,6.9706602539062485,1.7857933471679686,2.8169709838867187,-2.891412213740458,-1.2359885496183205,-0.08823282442748093,0
21332,7.1214949584960925,1.7953701538085935,2.8935854370117187,-1.9753816793893129,-2.5795,-1.0195305343511452,0
21357,7.109523950195311,1.7474861206054686,2.761904345703125,-0.69293893129771,-3.2741564885496186,-2.1645687022900764,0
21382,7.123889160156248,1.838465783691406,2.7786637573242188,-0.19675572519083973,-3.6405687022900763,-1.7218206106870229,0
21407,7.006573278808593,1.7929759521484374,2.8504898071289064,0.3375954198473282,-2.9688129770992364,0.11024045801526716,0
21432,6.8748921874999995,1.761851330566406,2.934286865234375,1.5589694656488549,1.657141221374046,2.446118320610687,0
21457,6.963477648925781,1.800158557128906,2.8935854370117187,2.30706106870229,7.176225190839695,2.8506984732824425,0
21482,7.092764538574218,1.8264947753906249,2.9869593017578127,3.97118320610687,4.382332061068702,1.5987900763358778,0
21507,6.977842858886718,1.828888977050781,3.094698376464844,4.581870229007634,0.5273702290076336,0.9575687022900763,0
21532,6.771941516113281,1.6948136840820311,3.03963173828125,1.322328244274809,3.0006526717557254,2.110240458015267,0
21557,6.941929833984374,1.781004943847656,3.049208544921875,-1.9219465648854963,4.794545801526718,2.4995534351145037,0
21582,6.980237060546874,1.838465783691406,3.109063586425781,-1.0822519083969464,0.4663015267175573,0.8277977099236641,0
21607,6.927564624023437,1.781004943847656,3.07793896484375,0.13912213740458013,-0.3962938931297708,-0.9889961832061068,0
21633,6.910805212402344,1.7570629272460936,3.1401882080078125,0.13148854961832057,1.222026717557252,-1.6225839694656488,0
21658,6.968266052246093,1.838465783691406,3.118640393066406,-0.3799618320610687,2.176225190839695,-1.6760190839694658,0
21683,7.030515295410155,1.8432541870117185,3.156947619628906,-0.27309160305343516,1.7258435114503818,-1.27143893129771,0
21708,6.963477648925781,1.8241005737304685,3.1018809814453125,-1.1204198473282445,0.6037061068702291,-0.050064885496183265,0
21733,7.181349999999999,1.8624078002929687,3.2670808959960937,-2.1280534351145035,2.206759541984733,0.018637404580152617,0
21758,7.181349999999999,1.8336773803710935,3.2551098876953124,-1.8150763358778623,0.6876755725190841,-0.9737290076335877,0
21783,7.040092102050781,1.6948136840820311,3.279051904296875,-1.6624045801526717,-3.7245381679389316,-0.08823282442748093,0
21808,6.90601680908203,1.5846804077148435,3.185678039550781,-3.7616412213740458,-3.7321717557251906,1.545354961832061,0
21833,6.819825549316406,1.522431164550781,3.030054931640625,-6.746374045801527,-1.2741564885496182,3.033904580152672,0
21858,7.006573278808593,1.7666397338867186,3.0539969482421876,-9.662404580152671,1.122790076335878,2.751461832061069,0
21883,7.013755883789062,1.8049469604492185,2.8935854370117187,-9.654770992366412,-3.25125572519084,0.20947709923664115,0
21908,7.0257268920898435,1.7115730957031248,2.9510462768554686,-8.105152671755725,-7.457362595419847,-1.9050267175572517,0
21933,6.903622607421874,1.589468811035156,2.725991320800781,-5.761641221374046,-11.068049618320611,-2.2638053435114505,0
21958,6.956295043945311,1.532007971191406,2.84809560546875,-4.601335877862596,-7.709270992366411,-2.3248740458015265,0
21983,7.078399328613281,1.6852368774414062,2.8217593872070315,-3.7692748091603057,-0.5947671755725188,-3.2867061068702292,0
22009,7.178955798339843,1.7163614990234373,2.7786637573242188,-0.5326335877862595,-5.228354961832061,-3.019530534351145,0
22034,7.013755883789062,1.56792099609375,2.7523275390625,1.8643129770992366,-10.266522900763357,-2.050064885496183,0
22059,6.7599705078125,1.5751036010742185,2.857672412109375,1.7421755725190837,-7.228354961832061,-1.2485381679389311,0
22084,6.992208068847655,1.730726708984375,2.9414694702148436,-0.28835877862595427,0.321263358778626,-1.6302175572519082,0
22109,7.076005126953125,1.8935324218749998,2.9366810668945313,-2.5479007633587787,2.2296603053435113,-2.134034351145038,0
22134,6.9131994140624995,1.8432541870117185,2.9678056884765627,-3.3188931297709923,-2.7321717557251906,-2.0729656488549617,0
22159,6.795883532714844,1.577497802734375,2.8241535888671874,-4.547900763358779,-6.09095038167939,-2.004263358778626,0
22184,7.119100756835937,1.589468811035156,2.678107287597656,-5.983015267175573,-1.1520190839694657,-4.43937786259542,0
22209,7.243599243164062,1.7953701538085935,2.721202917480469,-4.593702290076336,-1.8695763358778623,-7.111133587786259,0
22234,7.147831176757811,1.7019962890624998,2.711626110839844,-0.5020992366412214,-9.281790076335877,-7.11876717557252,0
22259,7.0089674804687485,1.7642455322265624,2.6996551025390625,1.2536259541984731,-10.281790076335877,-5.492812977099237,0
22284,6.817431347656249,1.7762165405273436,2.721202917480469,0.1925572519083969,-9.106217557251908,-3.76762213740458,0
22310,6.810248742675781,1.8552251953124999,2.512907373046875,-3.4944656488549617,-2.4878969465648852,-3.538614503816794,0
22335,6.90601680908203,1.8959266235351562,2.548820397949219,-6.36469465648855,3.061721374045802,-3.759988549618321,0
22360,7.071216723632811,1.9414164550781248,2.5105131713867186,-6.18912213740458,-0.8237748091603052,-3.889759541984733,0
22385,6.956295043945311,1.7211499023437498,2.5105131713867186,-3.830343511450381,-4.510797709923665,-3.43174427480916,0
22410,6.827008154296874,1.8648020019531248,2.6757130859375002,-1.2196564885496182,-1.5413320610687022,-2.752354961832061,0
22435,6.884468994140625,2.0730975463867187,2.6805014892578125,-0.45629770992366414,8.122790076335878,-2.5920496183206105,0
22460,7.090370336914062,2.018030908203125,2.5823392211914062,1.8872137404580154,7.626606870229008,-2.988996183206107,0
22485,7.119100756835937,1.98930048828125,2.857672412109375,3.3910305343511453,3.0998893129770995,-3.1035,0
22510,7.037697900390625,1.972541076660156,2.9294984619140627,2.597137404580153,2.8556145038167937,-2.8134236641221375,0
22535,6.973054455566406,1.9581758666992186,3.0156897216796876,0.5666030534351145,3.672408396946565,-1.9737290076335876,0
22560,7.001784875488281,1.800158557128906,2.8935854370117187,-1.4333969465648857,2.7640114503816795,-2.019530534351145,0
22585,7.09755294189453,1.9964830932617186,3.049208544921875,-3.173854961832061,1.771645038167939,-2.836324427480916,0
22610,7.1214949584960925,1.9773294799804686,2.9606230834960936,-3.9143129770992364,0.2907290076335878,-4.599683206106871,0
22636,7.210080419921874,2.06591494140625,2.8409130004882814,-4.769274809160306,-2.709270992366412,-5.744721374045802,0
22661,7.202897814941406,1.98930048828125,2.8552782104492187,-4.899045801526718,-5.197820610687023,-5.996629770992366,0
22686,7.068822521972655,2.0539439331054687,2.7475391357421874,-4.3952290076335885,-6.235988549618321,-3.866858778625954,0
22711,6.9706602539062485,2.020425109863281,2.8241535888671874,-5.792175572519084,-2.7398053435114504,-1.485179389312977,0
22736,6.980237060546874,2.1281641845703123,2.7882405639648438,-6.273091603053436,-0.15965267175572517,-0.43174427480916033,0
22761,7.052063110351562,2.2023844360351563,2.687684094238281,-7.097519083969466,2.222026717557252,-1.317240458015267,0
22786,6.941929833984374,2.0323961181640624,2.50333056640625,-6.349427480916031,-1.6482022900763358,-1.4088435114503817,0
22811,6.896440002441406,2.02760771484375,2.56079140625,-5.295992366412214,-1.5336984732824428,-1.76762213740458,0
22836,6.980237060546874,1.9677526733398436,2.551214599609375,-3.4486641221374046,3.3059961832061067,-2.538614503816794,0
22861,7.0257268920898435,2.0635207397460937,2.6805014892578125,-0.4486641221374046,4.565538167938931,-3.019530534351145,0
22886,6.989813867187499,2.10422216796875,2.678107287597656,1.375763358778626,4.145690839694657,-2.630217557251908,0
22911,7.040092102050781,2.1736540161132814,2.7188087158203125,1.1772900763358778,4.3136297709923666,-1.7447213740458016,0
22936,7.104735546874999,2.2335090576171877,2.7571159423828124,0.4444656488549618,4.061721374045802,-1.0271641221374046,0
22961,7.131071765136718,2.3101235107421876,2.7571159423828124,-0.34179389312977104,3.351797709923664,-0.20273664122137414,0
22986,6.891651599121093,2.209567041015625,2.725991320800781,-0.9372137404580153,0.573171755725191,0.23237786259541982,0
23012,6.9874196655273435,2.1377409912109377,2.8935854370117187,-0.45629770992366414,0.11515648854961835,-0.4546450381679389,0
23037,7.109523950195311,2.255056872558594,2.96301728515625,0.11622137404580152,2.7945458015267177,-2.7370877862595417,0
23062,7.1574079833984365,2.2143554443359377,2.8840086303710937,0.8872137404580153,-0.3199580152671755,-4.6454847328244275,0
23087,6.980237060546874,2.1209815795898437,2.8313361938476564,1.375763358778626,-4.884843511450381,-4.759988549618321,0
23112,6.731240087890625,2.1760482177734377,2.9869593017578127,0.8032442748091603,-1.7474389312977099,-3.8363244274809163,0
23137,6.9706602539062485,2.1185873779296873,2.9654114868164063,-0.21202290076335883,4.771645038167939,-2.836324427480916,0
23162,7.107129748535155,2.2909698974609376,3.010901318359375,-0.3494274809160306,3.2372938931297712,-2.6912862595419846,0
23187,6.999390673828125,2.2023844360351563,2.7954231689453124,-1.4257633587786258,-2.5413320610687022,-2.27143893129771,0
23212,7.040092102050781,2.2023844360351563,2.8121825805664065,-2.1585877862595417,-4.106217557251908,-1.9279274809160305,0
23237,6.927564624023437,2.1568946044921877,2.86724921875,-1.5402671755725188,-3.1672862595419846,-1.2790725190839694,0
23262,6.695327062988281,2.14252939453125,2.7882405639648438,-1.9830152671755723,-1.8161412213740458,0.5529885496183206,0
23287,6.819825549316406,2.1688656127929686,2.6613478759765625,-4.212022900763359,4.260194656488549,0.8583320610687023,0
23312,7.049668908691406,2.0802801513671874,2.7954231689453124,-3.8150763358778623,6.489202290076335,-0.05769847328244282,0
23337,6.963477648925781,2.075491748046875,2.6661362792968752,-0.7616412213740459,0.35943129770992366,0.0033702290076335073,0
23363,6.79109512939453,2.1401351928710937,2.625434851074219,0.14675572519083968,-2.1520190839694657,0.018637404580152617,0
23388,6.932353027343749,2.245480065917969,2.761904345703125,-1.8532442748091604,8.847980916030535,-0.8439580152671756,0
23413,7.0089674804687485,2.3101235107421876,2.7188087158203125,-1.1814885496183205,12.993019083969466,-0.7828893129770992,0
23438,7.224445629882811,2.3149119140625,2.6852898925781252,2.8185114503816795,6.916683206106871,-1.0576984732824428,0
23463,7.236416638183592,2.403497375488281,2.8217593872070315,6.574236641221374,2.222026717557252,-2.3554083969465647,0
23488,7.372886132812499,2.1760482177734377,2.8552782104492187,9.986450381679388,-0.42682824427480903,-4.256171755725191,0
23513,7.162196386718748,2.228720654296875,2.9558346801757813,10.849045801526717,-2.8466755725190835,-3.1798358778625953,0
23538,7.23881083984375,2.1832308227539063,2.9390752685546877,9.375763358778626,-4.487896946564886,0.2171106870229007,0
23563,6.9874196655273435,2.228720654296875,3.161736022949219,6.421564885496183,-1.5871335877862593,3.850698473282443,0
23588,6.953900842285155,2.451381408691406,3.00132451171875,2.0322519083969466,3.1456908396946566,6.39268320610687,0
23613,7.087976135253906,2.5495436767578123,2.8935854370117187,-1.9753816793893129,2.206759541984733,6.102606870229007,0
23638,7.05924571533203,2.2143554443359377,2.7930289672851565,-2.540267175572519,-4.480263358778625,4.545354961832061,0
23664,6.812642944335937,2.1018279663085937,2.8887970336914064,-2.6547709923664122,-6.510797709923665,4.980469465648855,0
23689,6.781518322753905,2.0036656982421874,2.7571159423828124,-2.02881679389313,-3.2665229007633587,4.331614503816794,0
23714,6.915593615722655,2.0347903198242188,2.8337303955078124,1.1162213740458014,-0.625301526717557,3.1407748091603054,0
23739,7.044880505371093,2.068309143066406,2.8983738403320314,4.7116412213740455,0.24492748091603067,2.415583969465649,0
23764,7.119100756835937,2.2622394775390626,2.9701998901367186,5.6047709923664115,0.8937824427480917,3.3621488549618324,0
23789,6.8748921874999995,2.1952018310546877,2.8935854370117187,2.0017175572519084,1.0540877862595421,6.178942748091603,0
23814,6.922776220703125,2.1305583862304687,2.8911912353515623,-3.2349236641221375,2.3365305343511453,8.415583969465649,0
23839,6.860526977539062,2.1209815795898437,2.8026057739257815,-5.3952290076335885,4.855614503816794,7.537721374045801,0
23864,7.1214949584960925,2.209567041015625,2.8169709838867187,-2.143320610687023,3.4205,4.38504961832061,0
23889,7.107129748535155,2.1952018310546877,2.716414514160156,3.5131679389312978,-4.09095038167939,0.8583320610687023,0
23914,6.901228405761718,1.9869062866210936,2.678107287597656,5.925381679389313,-5.09095038167939,-0.6149503816793894,0
23939,6.9874196655273435,1.9366280517578123,2.8816144287109373,5.184923664122137,0.7792786259541986,-0.33250763358778623,0
23964,7.052063110351562,2.001271496582031,2.953440478515625,4.650572519083969,-0.4497290076335876,0.6827595419847328,0
23989,6.920382019042967,2.006059899902344,3.027660729980469,4.620038167938931,-5.197820610687023,3.1560419847328247,0
24014,6.860526977539062,1.8743788085937498,2.9893535034179686,1.4139312977099237,-3.1901870229007634,5.4690190839694655,0
24040,6.8772863891601554,1.9126860351562498,2.9175274536132814,-3.3952290076335876,-0.7550725190839693,5.530087786259542,0
24065,6.929958825683593,1.8863498168945312,2.7092319091796875,-5.685305343511451,-6.411561068702291,3.949935114503817,0
24090,6.779124121093749,1.6972078857421873,2.6852898925781252,-5.593702290076336,-12.335225190839694,2.3239809160305342,0
24115,6.645048828125,1.8911382202148437,2.7283855224609375,-4.280725190839695,-9.006980916030534,0.8354312977099236,0
24140,6.937141430664062,2.075491748046875,2.627829052734375,-1.8685114503816793,-3.678736641221374,-1.7752557251908394,0
24165,7.035303698730467,2.341248132324219,2.625434851074219,0.37576335877862593,-5.388660305343512,-3.859225190839694,0
24190,6.925170422363281,2.317306115722656,2.46502333984375,1.192557251908397,-7.014614503816793,-4.263805343511451,0
24215,7.030515295410155,2.0898569580078123,2.4219277099609378,1.589503816793893,-4.755072519083969,-5.179835877862596,0
24240,6.999390673828125,2.132952587890625,2.4506581298828127,2.8032442748091606,-3.770339694656488,-4.378309160305344,0
24265,7.044880505371093,1.9198686401367187,2.4865711547851563,4.169656488549618,-1.2588893129770993,-1.9431946564885494,0
24290,6.98263126220703,1.7642455322265624,2.5631856079101563,5.696374045801527,2.3975992366412213,-0.47754580152671766,0
24315,6.872497985839844,1.7163614990234373,2.5344551879882813,6.215458015267175,5.718209923664123,0.812530534351145,0
24340,7.286694873046874,1.9007150268554687,2.711626110839844,5.543702290076335,7.786912213740457,0.24764503816793892,0
24366,7.3082426879882805,2.1664714111328127,2.8911912353515623,5.009351145038168,2.107522900763359,-0.9737290076335877,0
24391,7.262752856445311,2.039578723144531,2.9678056884765627,2.475,0.5350038167938932,-1.0729656488549617,0
24416,7.1957152099609365,1.9222628417968748,2.704443505859375,-2.7616412213740458,3.5502709923664124,-0.3248740458015268,0
24441,7.605123693847655,1.9964830932617186,2.702049304199219,-5.2883587786259545,1.2296603053435116,-1.4928129770992364,0
24466,7.743987390136717,2.0419729248046874,2.637405859375,-3.639503816793893,-8.136751908396946,-3.5996832061068704,0
24491,7.674555541992187,1.9964830932617186,2.6709246826171875,-0.7234732824427482,-11.816141221374044,-4.7523549618320615,0
24516,7.526115039062499,1.9749352783203125,2.682895690917969,1.0551526717557251,-9.41919465648855,-2.3554083969465647,0
24541,7.190926806640625,2.0036656982421874,2.749933337402344,0.4979007633587786,-5.594767175572519,3.301080152671756,0
24566,7.236416638183592,2.1257699829101564,2.745144934082031,-1.3952290076335876,-0.06041603053435107,9.041538167938931,0
24591,7.044880505371093,2.0611265380859374,2.790634765625,-3.1280534351145035,2.473935114503817,12.316347328244275,0
24616,6.846161767578125,2.0228193115234374,2.627829052734375,-5.1738549618320615,-0.7703396946564887,12.55298854961832,0
24641,6.6689908447265625,1.8480425903320312,2.4985421630859377,-5.410496183206107,-5.106217557251908,10.423217557251908,0
24667,6.465483703613281,1.7857933471679686,2.6326174560546876,-5.761641221374046,-2.5795,6.7972633587786255,0
24692,6.393657653808593,1.7091788940429686,2.5919160278320312,-5.830343511450382,2.2449274809160307,3.011003816793893,0
24717,6.534915551757812,1.7259383056640625,2.5200899780273436,-6.051717557251909,5.069354961832062,0.39268320610687024,0
24742,6.769547314453125,1.6636890624999998,2.4602349365234377,-5.37232824427481,-0.9001106870229005,-1.698919847328244,0
24767,6.6522314331054675,1.570315197753906,2.27348720703125,-4.570801526717558,-6.335225190839694,-3.233270992366412,0
24792,6.6067416015625,1.558344189453125,2.3572842651367187,-4.647137404580153,-0.3504923664122137,-3.7218206106870224,0
24817,6.98263126220703,1.771428137207031,2.4913595581054686,-0.8608778625954198,4.382332061068702,-4.8668587786259545,0
24842,7.186138403320311,1.982117883300781,2.627829052734375,3.30706106870229,4.825080152671756,-6.248538167938932,0
24867,7.169378991699218,2.12337578125,2.8073941772460937,4.4826335877862595,4.779278625954198,-6.218003816793893,0
24892,7.23881083984375,2.1784424194335936,2.8337303955078124,2.085687022900763,3.939583969465649,-5.569148854961832,0
