t_ms,ax,ay,az,gx,gy,gz,label
0,-9.034577844238282,-1.2332949462890626,6.968516662597656,-0.12041984732824429,0.5960725190839695,-0.050064885496183265,0
25,-9.020212634277343,-1.2428717529296875,6.946968847656249,-0.04408396946564885,0.37469847328244277,-0.04243129770992371,0
50,-8.981905407714844,-1.2883615844726561,6.932603637695312,-0.08225190839694663,-0.04514885496183196,-0.019530534351145046,0
75,-9.027395239257812,-1.2237181396484376,7.0738615356445305,0.09332061068702285,0.03118702290076336,-0.1416679389312977,0
100,-9.056125659179688,-1.2021703247070312,6.975699267578125,0.13912213740458013,0.15332442748091624,0.018637404580152617,0
125,-8.984299609375,-1.2716021728515625,6.982881872558593,0.047519083969465636,0.0006526717557253647,0.0033702290076335073,0
150,-9.001059020996093,-1.1806225097656249,6.990064477539062,0.12385496183206107,-0.09095038167938929,-0.019530534351145046,0
175,-8.991482214355468,-1.2045645263671874,6.951757250976562,0.0017175572519083637,-0.1062175572519084,-0.004263358778625936,0
200,-8.993876416015624,-1.1901993164062499,7.052313720703125,0.05515267175572519,0.2601946564885498,0.0873396946564885,0
225,-9.017818432617187,-1.2261123413085937,6.918238427734375,-0.19675572519083973,0.34416412213740477,0.05680534351145039,0
250,-9.032183642578126,-1.1590746948242188,6.934997839355468,-0.10515267175572518,0.6876755725190841,-0.11876717557251915,0
275,-9.017818432617187,-1.2165355346679687,6.9230268310546865,-0.2959923664122137,0.7869122137404582,-0.08059923664122137,0
300,-8.957963391113282,-1.1686515014648438,6.939786242675781,-0.24255725190839694,0.7182099236641223,-0.13403435114503826,0
325,-8.962751794433593,-1.22850654296875,6.973305065917968,-0.01354961832061069,0.16859160305343512,-0.1264007633587786,0
350,-8.969934399414061,-1.257236962890625,6.9613340576171865,0.05515267175572519,-0.3352251908396946,0.06443893129770983,0
375,-8.967540197753905,-1.1758341064453124,6.911055822753905,0.13912213740458013,-0.16728625954198462,-0.034797709923664155,0
400,-8.936415576171875,-1.2261123413085937,7.025977502441406,-0.028816793893129744,0.015919847328244474,-0.04243129770992371,0
425,-9.02978944091797,-1.1949877197265624,6.970910864257812,-0.10515267175572518,-0.02224809160305341,-0.14930152671755736,0
451,-9.003453222656251,-1.1590746948242188,6.9038732177734365,-0.01354961832061069,0.12279007633587802,-0.11113358778625948,0
476,-9.077673474121093,-1.2787847778320311,7.006823889160156,0.24599236641221373,0.24492748091603067,0.0033702290076335073,0
501,-8.972328601074219,-1.257236962890625,6.908661621093749,-0.12805343511450384,0.5197366412213742,-0.04243129770992371,0
526,-8.957963391113282,-1.1973819213867187,6.899084814453125,-0.021183206106870245,0.5655381679389314,0.018637404580152617,0
551,-8.99627061767578,-1.1997761230468749,6.934997839355468,-0.11278625954198473,0.672408396946565,-0.14930152671755736,0
576,-9.020212634277343,-1.2045645263671874,6.889508007812499,-0.28835877862595427,0.6953091603053436,-0.04243129770992371,0
601,-8.969934399414061,-1.1758341064453124,6.990064477539062,-0.15858778625954195,0.5121030534351146,-0.019530534351145046,0
626,-8.998664819335938,-1.2021703247070312,6.908661621093749,-0.2501908396946565,0.18385877862595423,-0.20273664122137414,0
651,-8.99627061767578,-1.2021703247070312,6.901479016113281,0.08568702290076335,-0.35812595419847315,-0.07296564885496182,0
676,-9.010635827636719,-1.218929736328125,6.9421804443359365,0.207824427480916,-0.42682824427480903,-0.04243129770992371,0
701,-9.010635827636719,-1.2069587280273437,6.915844226074218,0.15438931297709924,-0.29705725190839694,-0.10350000000000004,0
726,-8.969934399414061,-1.1662572998046874,6.884719604492187,0.009351145038167918,-0.029881679389312854,-0.050064885496183265,0
751,-8.986693811035156,-1.1973819213867187,6.954151452636718,-0.07461832061068707,0.16859160305343512,-0.06533206106870237,0
776,-8.998664819335938,-1.2332949462890626,7.021189099121093,0.024618320610687028,0.0922557251908398,0.10260687022900761,0
801,-9.010635827636719,-1.171045703125,6.9421804443359365,-0.1356870229007634,0.5121030534351146,0.033904580152671726,0
826,-8.969934399414061,-1.2069587280273437,6.958939855957031,-0.1509541984732825,0.6647748091603054,-0.05769847328244282,0
851,-9.010635827636719,-1.1854109130859374,7.028371704101562,-0.05171755725190841,0.6647748091603054,-0.011896946564885491,0
877,-9.0226068359375,-1.2237181396484376,6.920632629394531,-0.1356870229007634,0.35943129770992366,-0.05769847328244282,0
902,-8.986693811035156,-1.257236962890625,6.930209436035155,-0.06698473282442752,-0.3352251908396946,-0.07296564885496182,0
927,-8.981905407714844,-1.1854109130859374,7.011612292480468,0.016984732824427473,0.16095801526717568,-0.06533206106870237,0
952,-8.945992382812499,-1.2332949462890626,7.025977502441406,0.03225190839694653,0.14569083969465657,-0.06533206106870237,0
977,-8.962751794433593,-1.2261123413085937,6.927815234374999,0.14675572519083968,0.2220267175572519,-0.20273664122137414,0
1002,-9.013030029296875,-1.2117471313476562,7.025977502441406,0.12385496183206107,0.19912595419847334,-0.011896946564885491,0
1027,-9.013030029296875,-1.2141413330078124,6.970910864257812,0.016984732824427473,0.14569083969465657,0.04153816793893128,0
1052,-8.90768515625,-1.1758341064453124,6.968516662597656,-0.01354961832061069,-0.05278244274809141,-0.04243129770992371,0
1077,-8.97711700439453,-1.2404775512695312,6.915844226074218,0.03225190839694653,0.31362977099236655,0.04153816793893128,0
1102,-8.991482214355468,-1.2237181396484376,6.899084814453125,-0.08988549618320618,0.4510343511450383,-0.06533206106870237,0
1127,-8.95317498779297,-1.2644195678710937,6.925421032714843,-0.08988549618320618,0.4663015267175573,-0.08059923664122137,0
1152,-9.046548852539061,-1.2309007446289062,6.951757250976562,-0.1356870229007634,0.2525610687022901,0.13314122137404572,0
1177,-8.957963391113282,-1.1901993164062499,6.9972470825195305,-0.12041984732824429,0.3365305343511451,-0.0271641221374046,0
1202,-9.01542423095703,-1.2883615844726561,6.875142797851562,-0.12041984732824429,0.206759541984733,-0.050064885496183265,0
1227,-8.972328601074219,-1.2093529296874999,6.951757250976562,-0.028816793893129744,0.37469847328244277,-0.04243129770992371,0
1253,-9.044154650878905,-1.1758341064453124,6.9780934692382806,0.12385496183206107,0.11515648854961835,0.07207251908396939,0
1278,-8.981905407714844,-1.22850654296875,6.920632629394531,-0.05935114503816796,0.573171755725191,-0.019530534351145046,0
1303,-8.96514599609375,-1.1734399047851563,6.875142797851562,-0.12805343511450384,0.5121030534351146,0.018637404580152617,0
1328,-8.993876416015624,-1.2141413330078124,6.937392041015625,-0.17385496183206106,0.2907290076335878,-0.07296564885496182,0
1353,-9.001059020996093,-1.2596311645507812,6.994852880859375,-0.04408396946564885,0.03882061068702303,-0.08823282442748093,0
1378,-9.005847424316407,-1.2356891479492187,6.987670275878906,-0.005916030534351191,0.35943129770992366,-0.06533206106870237,0
1403,-8.991482214355468,-1.2309007446289062,6.987670275878906,-0.07461832061068707,0.08462213740458036,0.09497328244274805,0
1428,-8.99627061767578,-1.1758341064453124,6.951757250976562,0.14675572519083968,0.12279007633587802,0.14077480916030527,0
1453,-9.013030029296875,-1.1830167114257812,6.985276074218749,0.009351145038167918,-0.21308778625954194,-0.08823282442748093,0
1478,-8.981905407714844,-1.1878051147460937,6.944574645996093,0.009351145038167918,0.023553435114503918,-0.004263358778625936,0
1503,-9.034577844238282,-1.238083349609375,6.901479016113281,0.06278625954198469,0.05408778625954214,-0.1416679389312977,0
1528,-9.068096667480468,-1.2141413330078124,6.968516662597656,-0.028816793893129744,0.6113396946564886,-0.06533206106870237,0
1553,-9.048943054199219,-1.1901993164062499,7.006823889160156,-0.20438931297709928,0.5960725190839695,-0.11113358778625948,0
1578,-9.017818432617187,-1.2069587280273437,6.911055822753905,-0.20438931297709928,0.5044694656488551,0.0033702290076335073,0
1603,-9.0609140625,-1.2045645263671874,6.934997839355468,-0.22729007633587783,0.237293893129771,-0.06533206106870237,0
1628,-9.013030029296875,-1.2165355346679687,6.9230268310546865,0.10858778625954196,0.12279007633587802,0.0033702290076335073,0
1654,-8.998664819335938,-1.2859673828125,6.9804876708984365,0.0017175572519083637,-0.18255343511450373,0.018637404580152617,0
1679,-8.984299609375,-1.2428717529296875,7.052313720703125,0.14675572519083968,-0.34285877862595404,0.07970610687022894,0
1704,-8.981905407714844,-1.2165355346679687,6.918238427734375,0.1696564885496183,0.05408778625954214,-0.004263358778625936,0
1729,-9.04176044921875,-1.1758341064453124,6.958939855957031,0.0017175572519083637,0.6037061068702291,0.018637404580152617,0
1754,-9.04176044921875,-1.2309007446289062,6.954151452636718,-0.18912213740458017,1.191492366412214,-0.050064885496183265,0
1779,-8.948386584472656,-1.1925935180664062,6.946968847656249,-0.05171755725190841,0.8556145038167939,-0.10350000000000004,0
1804,-9.025001037597656,-1.2811789794921875,6.951757250976562,-0.08988549618320618,0.3517977099236642,0.018637404580152617,0
1829,-9.001059020996093,-1.2141413330078124,6.994852880859375,-0.1356870229007634,0.21439312977099245,-0.05769847328244282,0
1854,-8.986693811035156,-1.2021703247070312,6.879931201171875,-0.20438931297709928,0.21439312977099245,-0.14930152671755736,0
1879,-9.008241625976563,-1.1830167114257812,6.9421804443359365,-0.07461832061068707,-0.04514885496183196,-0.05769847328244282,0
1904,-9.003453222656251,-1.1758341064453124,6.963728259277343,0.10095419847328241,-0.5642328244274808,-0.04243129770992371,0
1929,-9.0609140625,-1.2716021728515625,6.987670275878906,0.13912213740458013,-0.4344618320610687,0.018637404580152617,0
1954,-9.075279272460937,-1.218929736328125,6.946968847656249,-0.01354961832061069,-0.006980916030534301,-0.004263358778625936,0
1979,-8.998664819335938,-1.2045645263671874,6.906267419433593,-0.05171755725190841,0.28309541984732833,-0.004263358778625936,0
2004,-9.020212634277343,-1.24766015625,7.002035485839843,-0.021183206106870245,0.2220267175572519,-0.034797709923664155,0
2029,-9.070490869140624,-1.1758341064453124,7.030765905761718,-0.06698473282442752,0.5044694656488551,0.04153816793893128,0
2055,-8.993876416015624,-1.2141413330078124,6.949363049316406,-0.021183206106870245,0.8250801526717558,0.018637404580152617,0
2080,-9.001059020996093,-1.2117471313476562,7.025977502441406,-0.18912213740458017,0.9624847328244276,-0.1569351145038168,0
2105,-9.027395239257812,-1.1878051147460937,6.963728259277343,-0.38759541984732826,0.6800419847328245,-0.1264007633587786,0
2130,-8.886137341308594,-1.2093529296874999,6.982881872558593,-0.05935114503816796,0.321263358778626,0.049171755725190835,0
2155,-9.005847424316407,-1.2644195678710937,7.057102124023436,0.07041984732824424,-0.18255343511450373,0.018637404580152617,0
2180,-8.998664819335938,-1.257236962890625,6.894296411132812,0.03988549618320608,-0.2817900763358778,0.04153816793893128,0
2205,-9.034577844238282,-1.2644195678710937,6.954151452636718,0.23072519083969464,-0.2359885496183205,-0.034797709923664155,0
2230,-9.017818432617187,-1.2165355346679687,6.889508007812499,0.23072519083969464,-0.20545419847328228,0.011003816793893062,0
2255,-9.032183642578126,-1.2237181396484376,6.9230268310546865,-0.005916030534351191,0.0922557251908398,-0.004263358778625936,0
2280,-9.039366247558593,-1.2787847778320311,6.927815234374999,-0.05171755725190841,0.16859160305343512,0.011003816793893062,0
2305,-9.020212634277343,-1.1782283081054687,6.925421032714843,-0.18912213740458017,0.58843893129771,0.10260687022900761,0
2330,-9.07288507080078,-1.1997761230468749,6.9972470825195305,-0.04408396946564885,0.8021793893129772,-0.11113358778625948,0
2355,-9.005847424316407,-1.1734399047851563,6.944574645996093,-0.10515267175572518,0.45866793893129776,0.05680534351145039,0
2380,-9.039366247558593,-1.2404775512695312,6.951757250976562,0.05515267175572519,0.37469847328244277,-0.16456870229007647,0
2405,-8.998664819335938,-1.22850654296875,7.004429687499999,-0.021183206106870245,0.39759923664122154,-0.14930152671755736,0
2430,-9.077673474121093,-1.1662572998046874,6.822470361328125,0.12385496183206107,0.06172137404580158,-0.0271641221374046,0
2455,-8.96514599609375,-1.2237181396484376,6.934997839355468,-0.05935114503816796,-0.19782061068702284,0.04153816793893128,0
2481,-9.0609140625,-1.2261123413085937,6.934997839355468,0.14675572519083968,-0.2207213740458014,0.0033702290076335073,0
2506,-9.02978944091797,-1.2332949462890626,6.937392041015625,-0.028816793893129744,-0.19018702290076317,-0.06533206106870237,0
2531,-8.981905407714844,-1.1471036865234374,6.915844226074218,-0.05935114503816796,0.0006526717557253647,-0.0271641221374046,0
2556,-9.013030029296875,-1.1925935180664062,6.939786242675781,-0.10515267175572518,0.45866793893129776,-0.1416679389312977,0
2581,-9.075279272460937,-1.2117471313476562,6.930209436035155,-0.18148854961832062,0.44340076335877876,-0.27907251908396946,0
2606,-9.04176044921875,-1.1638630981445313,6.920632629394531,-0.1662213740458015,0.5808053435114505,-0.019530534351145046,0
2631,-9.039366247558593,-1.1949877197265624,6.963728259277343,0.06278625954198469,0.8479809160305345,-0.1569351145038168,0
2656,-9.005847424316407,-1.2548427612304687,6.906267419433593,-0.028816793893129744,0.6266068702290077,0.011003816793893062,0
2681,-8.986693811035156,-1.2332949462890626,7.028371704101562,-0.12041984732824429,0.19912595419847334,-0.004263358778625936,0
2706,-8.998664819335938,-1.2213239379882812,6.937392041015625,-0.0364503816793893,0.0922557251908398,0.018637404580152617,0
2731,-9.068096667480468,-1.1901993164062499,6.920632629394531,0.03988549618320608,-0.09858396946564874,-0.019530534351145046,0
2756,-9.036972045898438,-1.2261123413085937,6.946968847656249,0.047519083969465636,-0.014614503816793745,-0.019530534351145046,0
2781,-8.97711700439453,-1.2213239379882812,6.985276074218749,0.12385496183206107,-0.25888931297709905,-0.13403435114503826,0
2806,-9.003453222656251,-1.1758341064453124,6.846412377929687,-0.05935114503816796,-0.08331679389312963,-0.050064885496183265,0
2831,-8.991482214355468,-1.1901993164062499,6.901479016113281,0.047519083969465636,0.06935496183206125,-0.13403435114503826,0
2856,-9.010635827636719,-1.1542862915039063,6.915844226074218,-0.028816793893129744,0.5960725190839695,0.04153816793893128,0
2882,-9.063308264160156,-1.1782283081054687,6.930209436035155,-0.08225190839694663,0.8021793893129772,-0.17220229007633592,0
2907,-8.993876416015624,-1.2237181396484376,6.920632629394531,-0.21202290076335883,0.7334770992366413,-0.08823282442748093,0
2932,-8.955569189453126,-1.2237181396484376,6.968516662597656,-0.0364503816793893,0.5350038167938932,-0.07296564885496182,0
2957,-9.003453222656251,-1.218929736328125,6.9421804443359365,-0.04408396946564885,0.2525610687022901,-0.04243129770992371,0
2982,-9.058519860839844,-1.2787847778320311,7.002035485839843,-0.05171755725190841,0.008286259541984808,-0.0271641221374046,0
3007,-9.003453222656251,-1.2428717529296875,6.990064477539062,0.09332061068702285,0.18385877862595423,0.0033702290076335073,0
3032,-8.998664819335938,-1.2548427612304687,6.985276074218749,0.07041984732824424,0.28309541984732833,-0.004263358778625936,0
3057,-9.010635827636719,-1.2261123413085937,6.906267419433593,0.16202290076335873,-0.31232442748091604,-0.04243129770992371,0
3082,-9.036972045898438,-1.218929736328125,6.9996412841796865,0.09332061068702285,-0.2665229007633587,-0.1569351145038168,0
3107,-8.986693811035156,-1.1901993164062499,6.887113806152343,0.07041984732824424,0.237293893129771,0.018637404580152617,0
3132,-9.020212634277343,-1.1854109130859374,6.882325402832031,-0.05171755725190841,0.237293893129771,-0.04243129770992371,0
3157,-9.034577844238282,-1.1901993164062499,6.954151452636718,-0.01354961832061069,0.6037061068702291,-0.05769847328244282,0
3182,-9.044154650878905,-1.2452659545898437,6.963728259277343,0.11622137404580152,0.2678282442748092,-0.13403435114503826,0
3207,-9.020212634277343,-1.2596311645507812,6.855989184570312,-0.19675572519083973,0.2601946564885498,0.033904580152671726,0
3232,-8.967540197753905,-1.2021703247070312,6.901479016113281,-0.10515267175572518,0.7487442748091604,-0.05769847328244282,0
3258,-9.07288507080078,-1.257236962890625,6.963728259277343,-0.2959923664122137,0.8098129770992367,-0.10350000000000004,0
3283,-8.950780786132812,-1.2117471313476562,6.992458679199218,-0.18148854961832062,0.58843893129771,-0.2256374045801527,0
3308,-9.025001037597656,-1.1638630981445313,6.913450024414062,0.024618320610687028,-0.04514885496183196,-0.13403435114503826,0
3333,-8.993876416015624,-1.1638630981445313,6.925421032714843,0.12385496183206107,-0.27415648854961816,-0.05769847328244282,0
3358,-9.089644482421875,-1.1878051147460937,6.839229772949218,0.07041984732824424,-0.3810267175572517,0.07970610687022894,0
3383,-9.034577844238282,-1.1901993164062499,6.9613340576171865,0.03988549618320608,-0.12911832061068695,0.04153816793893128,0
3408,-8.986693811035156,-1.1949877197265624,6.985276074218749,0.03988549618320608,0.08462213740458036,0.05680534351145039,0
3433,-9.065702465820312,-1.1758341064453124,6.946968847656249,0.0780534351145038,0.04645419847328247,0.02627099236641217,0
3458,-8.934021374511719,-1.2141413330078124,6.832047167968749,-0.18912213740458017,0.7640114503816795,-0.11876717557251915,0
3483,-9.089644482421875,-1.2787847778320311,6.9780934692382806,-0.24255725190839694,0.6113396946564886,-0.11876717557251915,0
3508,-9.013030029296875,-1.1949877197265624,6.954151452636718,-0.10515267175572518,0.6113396946564886,-0.17983587786259536,0
3533,-9.008241625976563,-1.15189208984375,6.870354394531249,-0.04408396946564885,0.489202290076336,0.033904580152671726,0
3558,-8.99627061767578,-1.2883615844726561,7.002035485839843,0.047519083969465636,0.4205000000000001,0.04153816793893128,0
3583,-9.003453222656251,-1.1997761230468749,7.095409350585937,-0.05171755725190841,0.2754618320610689,-0.2256374045801527,0
3608,-8.984299609375,-1.2548427612304687,6.944574645996093,0.09332061068702285,-0.19782061068702284,-0.034797709923664155,0
3633,-9.01542423095703,-1.1854109130859374,6.954151452636718,0.20019083969465645,-0.20545419847328228,0.02627099236641217,0
3659,-9.027395239257812,-1.2907557861328125,6.901479016113281,0.2765267175572519,-0.19782061068702284,-0.1569351145038168,0
3684,-8.998664819335938,-1.161468896484375,6.882325402832031,0.05515267175572519,-0.03751526717557252,0.011003816793893062,0
3709,-8.989088012695312,-1.2261123413085937,6.963728259277343,-0.05171755725190841,-0.02224809160305341,0.0033702290076335073,0
3734,-9.025001037597656,-1.2524485595703125,6.956545654296875,-0.1356870229007634,0.37469847328244277,-0.011896946564885491,0
3759,-8.972328601074219,-1.2261123413085937,6.906267419433593,-0.21202290076335883,0.4357671755725192,-0.019530534351145046,0
3784,-9.025001037597656,-1.171045703125,6.985276074218749,-0.14332061068702295,0.42813358778625965,-0.050064885496183265,0
3809,-9.008241625976563,-1.1662572998046874,6.9613340576171865,-0.07461832061068707,0.321263358778626,-0.1569351145038168,0
3834,-9.020212634277343,-1.2021703247070312,6.920632629394531,-0.12041984732824429,0.24492748091603067,-0.11113358778625948,0
3859,-8.986693811035156,-1.1973819213867187,6.882325402832031,0.05515267175572519,0.3670648854961833,-0.16456870229007647,0
3884,-9.04176044921875,-1.1997761230468749,6.970910864257812,0.03988549618320608,0.32889694656488566,-0.1264007633587786,0
3909,-9.025001037597656,-1.1686515014648438,6.875142797851562,0.14675572519083968,0.0922557251908398,-0.13403435114503826,0
3934,-8.967540197753905,-1.2835731811523436,6.9972470825195305,0.024618320610687028,-0.04514885496183196,-0.04243129770992371,0
3959,-9.01542423095703,-1.2404775512695312,7.023583300781249,0.11622137404580152,-0.07568320610687018,-0.05769847328244282,0
3984,-9.008241625976563,-1.1542862915039063,6.987670275878906,0.07041984732824424,-0.12911832061068695,-0.08059923664122137,0
4009,-9.039366247558593,-1.1973819213867187,7.037948510742186,0.08568702290076335,0.0922557251908398,-0.034797709923664155,0
4034,-8.998664819335938,-1.171045703125,7.0164006958007805,0.0017175572519083637,0.2678282442748092,-0.034797709923664155,0
4060,-9.063308264160156,-1.1901993164062499,6.877536999511718,-0.11278625954198473,0.35943129770992366,-0.23327099236641236,0
4085,-9.013030029296875,-1.2213239379882812,6.954151452636718,-0.07461832061068707,0.44340076335877876,-0.050064885496183265,0
4110,-9.046548852539061,-1.1925935180664062,6.9230268310546865,-0.18148854961832062,0.31362977099236655,-0.1569351145038168,0
4135,-9.017818432617187,-1.2859673828125,6.918238427734375,-0.09751908396946563,0.42813358778625965,-0.14930152671755736,0
4160,-9.005847424316407,-1.1830167114257812,6.946968847656249,0.03988549618320608,0.29836259541984744,0.049171755725190835,0
4185,-9.017818432617187,-1.1590746948242188,6.927815234374999,-0.04408396946564885,-0.20545419847328228,-0.08059923664122137,0
4210,-9.077673474121093,-1.2452659545898437,6.9613340576171865,0.10095419847328241,0.008286259541984808,-0.019530534351145046,0
4235,-8.99627061767578,-1.15189208984375,6.855989184570312,0.03225190839694653,0.206759541984733,-0.034797709923664155,0
4260,-8.991482214355468,-1.218929736328125,6.958939855957031,-0.07461832061068707,0.13805725190839713,-0.050064885496183265,0
4285,-9.027395239257812,-1.2117471313476562,6.915844226074218,0.08568702290076335,0.13042366412213746,-0.04243129770992371,0
4310,-9.020212634277343,-1.2165355346679687,6.987670275878906,0.016984732824427473,0.31362977099236655,-0.050064885496183265,0
4335,-8.984299609375,-1.2332949462890626,6.946968847656249,-0.08225190839694663,0.321263358778626,-0.08059923664122137,0
4360,-9.032183642578126,-1.2165355346679687,6.863171789550781,0.07041984732824424,0.45866793893129776,-0.034797709923664155,0
4385,-8.991482214355468,-1.238083349609375,6.875142797851562,-0.01354961832061069,0.32889694656488566,-0.18746946564885503,0
4410,-9.068096667480468,-1.2428717529296875,7.006823889160156,-0.25782442748091605,0.5579045801526719,-0.21800381679389325,0
4436,-9.075279272460937,-1.2644195678710937,6.9230268310546865,-0.12041984732824429,0.405232824427481,-0.13403435114503826,0
4461,-9.065702465820312,-1.1901993164062499,6.858383386230468,-0.05935114503816796,0.16859160305343512,-0.14930152671755736,0
4486,-8.929232971191407,-1.218929736328125,7.033160107421875,0.09332061068702285,0.015919847328244474,-0.11113358778625948,0
4511,-9.04176044921875,-1.22850654296875,6.944574645996093,0.08568702290076335,-0.18255343511450373,-0.1569351145038168,0
4536,-8.97711700439453,-1.2524485595703125,6.932603637695312,-0.19675572519083973,-0.006980916030534301,0.0873396946564885,0
4561,-9.008241625976563,-1.2332949462890626,6.949363049316406,-0.17385496183206106,0.22966030534351156,0.02627099236641217,0
4586,-9.017818432617187,-1.1806225097656249,7.0738615356445305,-0.005916030534351191,0.405232824427481,-0.034797709923664155,0
4611,-9.001059020996093,-1.1997761230468749,7.0164006958007805,-0.005916030534351191,0.5350038167938932,-0.11876717557251915,0
4636,-9.001059020996093,-1.15189208984375,6.855989184570312,-0.11278625954198473,0.47393511450381687,-0.07296564885496182,0
4661,-9.036972045898438,-1.1973819213867187,6.939786242675781,-0.01354961832061069,0.5502709923664123,-0.019530534351145046,0
4686,-9.068096667480468,-1.1830167114257812,6.990064477539062,-0.07461832061068707,0.49683587786259553,-0.11876717557251915,0
4711,-9.07288507080078,-1.2141413330078124,6.982881872558593,0.0017175572519083637,0.206759541984733,0.12550763358778627,0
4736,-9.036972045898438,-1.1686515014648438,6.963728259277343,-0.06698473282442752,-0.06804961832061052,0.02627099236641217,0
4761,-8.969934399414061,-1.1686515014648438,6.915844226074218,0.03988549618320608,-0.006980916030534301,-0.05769847328244282,0
4786,-9.008241625976563,-1.2332949462890626,6.798528344726562,0.016984732824427473,-0.04514885496183196,-0.019530534351145046,0
4812,-9.046548852539061,-1.2811789794921875,6.920632629394531,-0.12805343511450384,0.008286259541984808,0.0033702290076335073,0
4837,-9.010635827636719,-1.2021703247070312,6.9230268310546865,0.08568702290076335,0.28309541984732833,-0.1416679389312977,0
4862,-8.99627061767578,-1.2141413330078124,6.944574645996093,-0.07461832061068707,0.41286641221374065,-0.1264007633587786,0
4887,-8.998664819335938,-1.238083349609375,6.9996412841796865,-0.06698473282442752,0.47393511450381687,0.0033702290076335073,0
4912,-9.0609140625,-1.30512099609375,6.990064477539062,-0.01354961832061069,0.5350038167938932,-0.08823282442748093,0
4937,-9.010635827636719,-1.1854109130859374,6.911055822753905,-0.15858778625954195,0.32889694656488566,-0.06533206106870237,0
4962,-9.010635827636719,-1.1686515014648438,6.896690612792968,-0.08988549618320618,0.2754618320610689,0.011003816793893062,0
4987,-8.969934399414061,-1.1758341064453124,6.949363049316406,0.03988549618320608,0.2525610687022901,-0.06533206106870237,0
5012,-9.003453222656251,-1.2356891479492187,6.9230268310546865,-0.14332061068702295,0.32889694656488566,-0.019530534351145046,0
5037,-9.044154650878905,-1.2237181396484376,6.951757250976562,-0.0364503816793893,0.16095801526717568,0.09497328244274805,0
5062,-9.025001037597656,-1.1782283081054687,6.894296411132812,0.07041984732824424,-0.006980916030534301,0.011003816793893062,0
5087,-9.05373145751953,-1.2309007446289062,6.901479016113281,-0.05935114503816796,-0.1367519083969464,0.018637404580152617,0
5112,-9.034577844238282,-1.2093529296874999,6.937392041015625,-0.1662213740458015,0.21439312977099245,0.018637404580152617,0
5137,-8.984299609375,-1.1878051147460937,6.944574645996093,-0.07461832061068707,0.45866793893129776,0.05680534351145039,0
5162,-9.063308264160156,-1.24766015625,6.982881872558593,-0.19675572519083973,0.3059961832061069,-0.05769847328244282,0
5188,-9.032183642578126,-1.1782283081054687,6.963728259277343,-0.05935114503816796,0.206759541984733,-0.2409045801526718,0
5213,-9.027395239257812,-1.2692079711914062,6.889508007812499,0.009351145038167918,0.2678282442748092,-0.004263358778625936,0
5238,-9.008241625976563,-1.2237181396484376,6.956545654296875,-0.07461832061068707,0.10752290076335891,-0.10350000000000004,0
5263,-9.003453222656251,-1.2428717529296875,6.9613340576171865,0.0780534351145038,-0.08331679389312963,-0.1416679389312977,0
5288,-9.04176044921875,-1.22850654296875,6.9230268310546865,0.024618320610687028,-0.006980916030534301,-0.07296564885496182,0
5313,-9.0226068359375,-1.26681376953125,6.975699267578125,-0.021183206106870245,0.21439312977099245,0.02627099236641217,0
5338,-8.998664819335938,-1.257236962890625,6.9038732177734365,-0.24255725190839694,0.8479809160305345,-0.10350000000000004,0
5363,-9.051337255859375,-1.257236962890625,6.9421804443359365,-0.22729007633587783,0.6266068702290077,-0.10350000000000004,0
5388,-8.941203979492187,-1.2093529296874999,6.891902209472655,-0.18912213740458017,0.6495076335877864,-0.10350000000000004,0
5413,-8.92683876953125,-1.2213239379882812,6.860777587890625,0.10858778625954196,0.489202290076336,-0.034797709923664155,0
5438,-8.974722802734375,-1.171045703125,6.798528344726562,-0.005916030534351191,-0.19018702290076317,-0.20273664122137414,0
5464,-8.929232971191407,-1.2524485595703125,6.927815234374999,0.23835877862595417,-0.6024007633587787,-0.19510305343511447,0
5489,-9.017818432617187,-1.218929736328125,6.990064477539062,0.10858778625954196,0.16095801526717568,-0.17983587786259536,0
5514,-9.027395239257812,-1.22850654296875,6.968516662597656,-0.12041984732824429,0.38233206106870243,-0.034797709923664155,0
5539,-8.998664819335938,-1.1997761230468749,6.937392041015625,-0.10515267175572518,-0.29705725190839694,0.07970610687022894,0
5564,-9.025001037597656,-1.2261123413085937,6.990064477539062,0.14675572519083968,-1.0375152671755723,-0.10350000000000004,0
5589,-9.108798095703126,-1.1279500732421874,7.061890527343749,-0.1509541984732825,0.7029427480916032,-0.2409045801526718,0
5614,-9.001059020996093,-1.1782283081054687,7.045131115722656,-0.6013358778625953,2.2143931297709925,-0.13403435114503826,0
5639,-9.032183642578126,-1.1279500732421874,6.887113806152343,-0.3188931297709924,1.405232824427481,-0.019530534351145046,0
5664,-9.044154650878905,-1.238083349609375,6.990064477539062,0.22309160305343512,-0.19018702290076317,0.10260687022900761,0
5689,-9.02978944091797,-1.1997761230468749,6.925421032714843,0.024618320610687028,-0.22835496183206105,-0.09586641221374048,0
5715,-9.056125659179688,-1.1686515014648438,6.808105151367187,-0.2501908396946565,0.4815687022900764,-0.1416679389312977,0
5740,-9.044154650878905,-1.2045645263671874,6.918238427734375,0.024618320610687028,0.35943129770992366,-0.29433969465648857,0
5765,-9.027395239257812,-1.2716021728515625,6.932603637695312,0.13148854961832057,-0.014614503816793745,-0.004263358778625936,0
5790,-9.046548852539061,-1.2237181396484376,6.949363049316406,0.29942748091603055,-1.0985839694656487,-0.0271641221374046,0
5815,-9.070490869140624,-1.1638630981445313,6.939786242675781,0.23835877862595417,-1.0298816793893129,-0.08059923664122137,0
5840,-9.005847424316407,-1.2261123413085937,6.882325402832031,-0.10515267175572518,0.34416412213740477,-0.019530534351145046,0
5865,-8.950780786132812,-1.2644195678710937,6.915844226074218,-0.37232824427480915,1.0311870229007636,-0.11113358778625948,0
5890,-8.960357592773438,-1.1806225097656249,6.9230268310546865,-0.19675572519083973,0.6953091603053436,-0.16456870229007647,0
5915,-8.960357592773438,-1.2309007446289062,6.968516662597656,-0.10515267175572518,0.31362977099236655,-0.07296564885496182,0
5940,-8.972328601074219,-1.1925935180664062,6.865565991210937,-0.14332061068702295,0.6495076335877864,0.033904580152671726,0
5965,-9.05373145751953,-1.1806225097656249,6.887113806152343,-0.3112595419847328,0.7792786259541986,-0.08059923664122137,0
5990,-9.01542423095703,-1.1686515014648438,6.946968847656249,-0.21202290076335883,0.3517977099236642,-0.19510305343511447,0
6015,-8.95317498779297,-1.2428717529296875,6.879931201171875,0.23835877862595417,-0.11385114503816784,-0.04243129770992371,0
6040,-9.034577844238282,-1.24766015625,6.911055822753905,0.26889312977099233,-0.15965267175572517,0.018637404580152617,0
6065,-9.068096667480468,-1.2500543579101562,6.958939855957031,-0.12041984732824429,0.2220267175572519,-0.0271641221374046,0
6091,-8.981905407714844,-1.2404775512695312,6.9038732177734365,-0.18148854961832062,0.39759923664122154,-0.09586641221374048,0
6116,-9.005847424316407,-1.1925935180664062,6.937392041015625,0.05515267175572519,0.2525610687022901,0.033904580152671726,0
6141,-9.010635827636719,-1.2644195678710937,6.918238427734375,-0.04408396946564885,-0.12911832061068695,0.04153816793893128,0
6166,-9.080067675781251,-1.2117471313476562,7.061890527343749,-0.1356870229007634,0.08462213740458036,0.11024045801526716,0
6191,-9.027395239257812,-1.2452659545898437,6.896690612792968,-0.24255725190839694,0.7716450381679391,-0.19510305343511447,0
6216,-8.979511206054688,-1.2261123413085937,6.937392041015625,-0.028816793893129744,0.8327137404580154,-0.1569351145038168,0
6241,-9.017818432617187,-1.171045703125,6.937392041015625,-0.05171755725190841,0.42813358778625965,-0.11113358778625948,0
6266,-9.010635827636719,-1.2093529296874999,6.899084814453125,-0.005916030534351191,-0.029881679389312854,-0.06533206106870237,0
6291,-9.039366247558593,-1.2117471313476562,6.937392041015625,0.05515267175572519,0.06172137404580158,0.011003816793893062,0
6316,-9.01542423095703,-1.1997761230468749,7.047525317382812,-0.021183206106870245,0.5273702290076336,-0.11876717557251915,0
6341,-9.089644482421875,-1.2045645263671874,6.968516662597656,-0.08225190839694663,0.34416412213740477,-0.05769847328244282,0
6366,-9.025001037597656,-1.26681376953125,6.937392041015625,0.10858778625954196,-0.27415648854961816,-0.050064885496183265,0
6391,-8.90768515625,-1.2309007446289062,6.937392041015625,0.08568702290076335,-0.19018702290076317,0.018637404580152617,0
6417,-9.096827087402342,-1.2117471313476562,6.863171789550781,-0.12805343511450384,0.2220267175572519,-0.019530534351145046,0
6442,-9.013030029296875,-1.2165355346679687,6.932603637695312,-0.21202290076335883,0.16095801526717568,-0.050064885496183265,0
6467,-9.039366247558593,-1.2069587280273437,6.920632629394531,0.024618320610687028,0.22966030534351156,-0.05769847328244282,0
6492,-9.058519860839844,-1.2452659545898437,7.069073132324218,-0.09751908396946563,0.3899656488549619,0.05680534351145039,0
6517,-8.991482214355468,-1.1542862915039063,6.915844226074218,-0.04408396946564885,0.5350038167938932,0.10260687022900761,0
6542,-8.981905407714844,-1.2117471313476562,6.966122460937499,-0.10515267175572518,0.7182099236641223,-0.04243129770992371,0
6567,-9.082461877441407,-1.2021703247070312,6.9421804443359365,-0.021183206106870245,0.45866793893129776,-0.05769847328244282,0
6592,-9.0609140625,-1.1758341064453124,7.009218090820312,-0.05935114503816796,0.10752290076335891,0.05680534351145039,0
6617,-8.993876416015624,-1.2237181396484376,6.994852880859375,0.07041984732824424,-0.09858396946564874,0.0033702290076335073,0
6642,-9.04176044921875,-1.22850654296875,6.896690612792968,-0.09751908396946563,-0.2207213740458014,-0.09586641221374048,0
6667,-9.001059020996093,-1.2787847778320311,6.894296411132812,0.016984732824427473,-0.19782061068702284,-0.10350000000000004,0
6692,-9.044154650878905,-1.1806225097656249,6.973305065917968,0.024618320610687028,0.0922557251908398,0.06443893129770983,0
6717,-9.094432885742187,-1.2428717529296875,6.906267419433593,-0.08225190839694663,0.29836259541984744,-0.06533206106870237,0
6742,-9.020212634277343,-1.2548427612304687,6.963728259277343,-0.08988549618320618,0.3517977099236642,-0.1264007633587786,0
6767,-9.02978944091797,-1.1973819213867187,6.908661621093749,-0.20438931297709928,0.6418740458015268,-0.14930152671755736,0
6793,-9.02978944091797,-1.2332949462890626,6.927815234374999,-0.05935114503816796,0.8632480916030535,0.02627099236641217,0
6818,-8.981905407714844,-1.2787847778320311,6.882325402832031,-0.021183206106870245,0.6647748091603054,-0.18746946564885503,0
6843,-9.034577844238282,-1.1806225097656249,6.973305065917968,-0.05935114503816796,0.5426374045801527,-0.1416679389312977,0
6868,-8.984299609375,-1.2332949462890626,6.915844226074218,-0.1356870229007634,0.3899656488549619,-0.1416679389312977,0
6893,-8.974722802734375,-1.1949877197265624,6.918238427734375,0.009351145038167918,-0.014614503816793745,0.12550763358778627,0
6918,-9.180624145507812,-1.1207674682617188,6.9996412841796865,-0.20438931297709928,-0.22835496183206105,-0.3248740458015268,0
6943,-9.187806750488281,-1.3673702392578124,7.18878321533203,-0.10515267175572518,0.04645419847328247,0.06443893129770983,0
6968,-8.922050366210938,-1.1854109130859374,6.889508007812499,0.23072519083969464,-0.48789694656488547,0.1865763358778626,0
6993,-9.046548852539061,-1.2117471313476562,6.992458679199218,0.20019083969465645,-0.7169045801526717,0.12550763358778627,0
7018,-8.981905407714844,-1.2716021728515625,6.865565991210937,-0.01354961832061069,0.39759923664122154,0.04153816793893128,0
7043,-8.967540197753905,-1.1638630981445313,6.946968847656249,-0.21202290076335883,1.2983625954198474,-0.11113358778625948,0
7068,-9.04176044921875,-1.2309007446289062,6.901479016113281,-0.2196564885496184,0.8021793893129772,0.0033702290076335073,0
7093,-8.979511206054688,-1.15189208984375,6.877536999511718,-0.10515267175572518,0.2678282442748092,-0.1416679389312977,0
7118,-9.048943054199219,-1.1806225097656249,6.918238427734375,-0.09751908396946563,0.45866793893129776,-0.09586641221374048,0
7143,-9.07288507080078,-1.2332949462890626,6.958939855957031,-0.07461832061068707,0.75637786259542,-0.11876717557251915,0
7169,-9.077673474121093,-1.218929736328125,6.908661621093749,-0.05935114503816796,0.42813358778625965,-0.04243129770992371,0
7194,-9.001059020996093,-1.2261123413085937,6.855989184570312,0.05515267175572519,-0.2359885496183205,-0.08823282442748093,0
7219,-9.008241625976563,-1.1734399047851563,6.994852880859375,0.13148854961832057,-0.6024007633587787,0.018637404580152617,0
7244,-8.998664819335938,-1.2644195678710937,6.9421804443359365,0.30706106870229005,-0.3199580152671755,0.06443893129770983,0
7269,-9.017818432617187,-1.2524485595703125,6.927815234374999,0.009351145038167918,0.2525610687022901,-0.1416679389312977,0
7294,-9.10640389404297,-1.2739963745117187,6.889508007812499,-0.028816793893129744,0.07698854961832069,-0.050064885496183265,0
7319,-9.027395239257812,-1.2332949462890626,6.973305065917968,0.07041984732824424,0.4815687022900764,0.0033702290076335073,0
7344,-9.032183642578126,-1.1590746948242188,6.925421032714843,-0.22729007633587783,0.6495076335877864,-0.011896946564885491,0
7369,-8.998664819335938,-1.218929736328125,6.882325402832031,0.047519083969465636,0.7258435114503817,-0.050064885496183265,0
7394,-9.039366247558593,-1.22850654296875,7.083438342285156,-0.12805343511450384,0.75637786259542,-0.034797709923664155,0
7419,-9.0226068359375,-1.2548427612304687,6.951757250976562,-0.08988549618320618,0.5350038167938932,-0.18746946564885503,0
7444,-8.974722802734375,-1.1447094848632813,6.944574645996093,0.15438931297709924,0.03882061068702303,-0.1569351145038168,0
7469,-9.036972045898438,-1.2021703247070312,6.958939855957031,0.07041984732824424,-0.24362213740458016,-0.019530534351145046,0
7494,-9.056125659179688,-1.2261123413085937,6.901479016113281,0.016984732824427473,-0.19782061068702284,0.11787404580152672,0
7519,-9.056125659179688,-1.2332949462890626,6.894296411132812,-0.19675572519083973,0.09988931297709924,-0.10350000000000004,0
7545,-8.972328601074219,-1.2093529296874999,6.872748596191405,0.0780534351145038,0.09988931297709924,-0.011896946564885491,0
7570,-9.013030029296875,-1.2332949462890626,6.946968847656249,0.07041984732824424,0.03118702290076336,0.07207251908396939,0
7595,-9.005847424316407,-1.2141413330078124,6.918238427734375,-0.0364503816793893,0.237293893129771,-0.14930152671755736,0
7620,-8.991482214355468,-1.1351326782226563,6.973305065917968,-0.20438931297709928,0.7411106870229008,0.02627099236641217,0
7645,-9.034577844238282,-1.24766015625,7.059496325683593,-0.021183206106870245,0.8021793893129772,-0.08059923664122137,0
7670,-9.056125659179688,-1.2356891479492187,6.913450024414062,-0.1356870229007634,0.5579045801526719,-0.20273664122137414,0
7695,-8.984299609375,-1.1303442749023438,6.920632629394531,-0.24255725190839694,0.2601946564885498,-0.17220229007633592,0
7720,-9.005847424316407,-1.2524485595703125,6.891902209472655,-0.005916030534351191,-0.029881679389312854,0.033904580152671726,0
7745,-9.020212634277343,-1.2452659545898437,6.920632629394531,-0.14332061068702295,-0.16728625954198462,0.12550763358778627,0
7770,-9.082461877441407,-1.2093529296874999,6.954151452636718,-0.10515267175572518,-0.3199580152671755,0.011003816793893062,0
7795,-9.063308264160156,-1.1494978881835938,6.896690612792968,0.024618320610687028,-0.15965267175572517,-0.05769847328244282,0
7820,-9.051337255859375,-1.1183732666015624,6.865565991210937,0.10095419847328241,-0.06041603053435107,-0.0271641221374046,0
7845,-9.020212634277343,-1.2141413330078124,6.906267419433593,-0.09751908396946563,0.3517977099236642,-0.011896946564885491,0
7870,-9.068096667480468,-1.2165355346679687,6.899084814453125,-0.10515267175572518,0.47393511450381687,-0.04243129770992371,0
7895,-9.039366247558593,-1.1925935180664062,6.908661621093749,-0.028816793893129744,0.6418740458015268,0.14077480916030527,0
7921,-9.084856079101563,-1.2332949462890626,6.946968847656249,-0.12041984732824429,0.4815687022900764,-0.0271641221374046,0
7946,-9.025001037597656,-1.2261123413085937,6.932603637695312,-0.005916030534351191,0.42813358778625965,0.0033702290076335073,0
7971,-9.001059020996093,-1.22850654296875,6.994852880859375,0.07041984732824424,0.07698854961832069,-0.08823282442748093,0
7996,-8.979511206054688,-1.2524485595703125,6.867960192871093,-0.1356870229007634,-0.06804961832061052,0.018637404580152617,0
8021,-9.051337255859375,-1.1806225097656249,6.9972470825195305,0.13148854961832057,-0.21308778625954194,0.018637404580152617,0
8046,-8.991482214355468,-1.1686515014648438,6.937392041015625,-0.021183206106870245,0.0006526717557253647,0.02627099236641217,0
8071,-9.068096667480468,-1.2021703247070312,6.906267419433593,0.024618320610687028,0.489202290076336,0.011003816793893062,0
8096,-9.056125659179688,-1.1925935180664062,6.906267419433593,-0.04408396946564885,0.03882061068702303,-0.08823282442748093,0
8121,-9.032183642578126,-1.295544189453125,6.937392041015625,0.0017175572519083637,0.11515648854961835,-0.11876717557251915,0
8146,-9.005847424316407,-1.2261123413085937,6.956545654296875,-0.05935114503816796,0.3365305343511451,-0.034797709923664155,0
8171,-9.025001037597656,-1.218929736328125,6.990064477539062,0.13912213740458013,0.5808053435114505,-0.09586641221374048,0
8196,-9.039366247558593,-1.2452659545898437,6.975699267578125,0.07041984732824424,0.31362977099236655,-0.10350000000000004,0
8221,-8.981905407714844,-1.2237181396484376,7.040342712402343,-0.07461832061068707,0.206759541984733,-0.13403435114503826,0
8246,-9.044154650878905,-1.2883615844726561,6.915844226074218,-0.005916030534351191,-0.029881679389312854,0.049171755725190835,0
8272,-9.017818432617187,-1.218929736328125,6.946968847656249,-0.08225190839694663,0.10752290076335891,0.11024045801526716,0
8297,-8.986693811035156,-1.1949877197265624,7.009218090820312,0.047519083969465636,0.2601946564885498,-0.019530534351145046,0
8322,-9.04176044921875,-1.2261123413085937,6.887113806152343,0.09332061068702285,0.19912595419847334,0.14077480916030527,0
8347,-8.998664819335938,-1.2500543579101562,7.009218090820312,0.009351145038167918,-0.07568320610687018,-0.08059923664122137,0
8372,-9.032183642578126,-1.161468896484375,6.920632629394531,-0.005916030534351191,0.2678282442748092,0.033904580152671726,0
8397,-9.082461877441407,-1.2835731811523436,7.002035485839843,0.016984732824427473,0.44340076335877876,-0.019530534351145046,0
8422,-9.010635827636719,-1.1734399047851563,6.9038732177734365,-0.07461832061068707,0.15332442748091624,0.06443893129770983,0
8447,-9.056125659179688,-1.22850654296875,6.855989184570312,-0.005916030534351191,0.24492748091603067,0.04153816793893128,0
8472,-9.020212634277343,-1.2021703247070312,7.004429687499999,-0.09751908396946563,0.42813358778625965,-0.034797709923664155,0
8497,-9.0226068359375,-1.238083349609375,6.901479016113281,-0.05935114503816796,0.5044694656488551,-0.16456870229007647,0
8522,-9.017818432617187,-1.2332949462890626,6.958939855957031,-0.12805343511450384,0.22966030534351156,-0.1264007633587786,0
8547,-9.027395239257812,-1.2620253662109375,6.875142797851562,-0.021183206106870245,0.2678282442748092,-0.1569351145038168,0
8572,-8.998664819335938,-1.2524485595703125,6.958939855957031,-0.05171755725190841,0.2525610687022901,0.0873396946564885,0
8597,-8.991482214355468,-1.1878051147460937,6.915844226074218,0.024618320610687028,0.237293893129771,-0.04243129770992371,0
8622,-9.048943054199219,-1.1973819213867187,6.884719604492187,-0.04408396946564885,0.07698854961832069,-0.14930152671755736,0
8648,-9.051337255859375,-1.1997761230468749,6.982881872558593,0.016984732824427473,0.08462213740458036,-0.04243129770992371,0
8673,-9.020212634277343,-1.2261123413085937,6.855989184570312,-0.08225190839694663,0.1762251908396948,-0.050064885496183265,0
8698,-8.986693811035156,-1.1830167114257812,6.985276074218749,0.0780534351145038,0.3899656488549619,-0.0271641221374046,0
8723,-9.005847424316407,-1.1662572998046874,6.970910864257812,-0.17385496183206106,0.42813358778625965,-0.10350000000000004,0
8748,-9.025001037597656,-1.1925935180664062,6.992458679199218,-0.19675572519083973,0.4663015267175573,0.06443893129770983,0
8773,-9.039366247558593,-1.2787847778320311,6.901479016113281,-0.005916030534351191,0.39759923664122154,0.0873396946564885,0
8798,-9.058519860839844,-1.2692079711914062,7.014006494140625,-0.04408396946564885,0.11515648854961835,-0.13403435114503826,0
8823,-9.020212634277343,-1.238083349609375,6.908661621093749,0.0780534351145038,0.44340076335877876,0.06443893129770983,0
8848,-9.034577844238282,-1.2261123413085937,6.920632629394531,0.009351145038167918,0.15332442748091624,0.06443893129770983,0
8873,-8.986693811035156,-1.218929736328125,6.954151452636718,-0.05171755725190841,0.10752290076335891,-0.10350000000000004,0
8898,-9.0609140625,-1.1638630981445313,6.9038732177734365,-0.15858778625954195,0.405232824427481,0.05680534351145039,0
8923,-9.010635827636719,-1.2021703247070312,7.0164006958007805,0.13148854961832057,0.38233206106870243,0.0033702290076335073,0
8948,-9.065702465820312,-1.1901993164062499,6.992458679199218,-0.021183206106870245,0.16095801526717568,0.05680534351145039,0
8973,-9.027395239257812,-1.1949877197265624,6.954151452636718,-0.08225190839694663,0.008286259541984808,-0.06533206106870237,0
8998,-8.986693811035156,-1.1997761230468749,6.877536999511718,0.0017175572519083637,0.29836259541984744,-0.08059923664122137,0
9024,-8.989088012695312,-1.1782283081054687,6.906267419433593,-0.08988549618320618,0.237293893129771,-0.019530534351145046,0
9049,-9.025001037597656,-1.218929736328125,6.9613340576171865,-0.01354961832061069,0.2907290076335878,-0.011896946564885491,0
9074,-9.046548852539061,-1.2332949462890626,7.014006494140625,-0.15858778625954195,0.2678282442748092,-0.1416679389312977,0
9099,-9.013030029296875,-1.2021703247070312,6.908661621093749,0.0780534351145038,0.1762251908396948,0.018637404580152617,0
9124,-9.065702465820312,-1.2309007446289062,6.906267419433593,-0.005916030534351191,0.03118702290076336,-0.034797709923664155,0
9149,-8.99627061767578,-1.2165355346679687,6.925421032714843,-0.12805343511450384,0.10752290076335891,-0.08823282442748093,0
9174,-9.01542423095703,-1.1686515014648438,7.014006494140625,-0.07461832061068707,-0.12148473282442729,0.049171755725190835,0
9199,-9.07288507080078,-1.2452659545898437,6.884719604492187,0.016984732824427473,0.11515648854961835,-0.07296564885496182,0
9224,-9.063308264160156,-1.1686515014648438,6.975699267578125,0.13148854961832057,0.2525610687022901,-0.08823282442748093,0
9249,-9.032183642578126,-1.2404775512695312,6.887113806152343,-0.1509541984732825,0.489202290076336,-0.21037022900763358,0
9274,-9.020212634277343,-1.2045645263671874,6.968516662597656,-0.08988549618320618,0.32889694656488566,-0.17220229007633592,0
9299,-9.008241625976563,-1.2620253662109375,6.908661621093749,-0.05935114503816796,0.34416412213740477,-0.0271641221374046,0
9324,-9.046548852539061,-1.2117471313476562,6.896690612792968,0.024618320610687028,0.35943129770992366,-0.05769847328244282,0
9349,-9.039366247558593,-1.2021703247070312,6.944574645996093,0.0780534351145038,0.10752290076335891,-0.034797709923664155,0
9374,-8.998664819335938,-1.1590746948242188,6.939786242675781,-0.08988549618320618,0.03882061068702303,0.06443893129770983,0
9400,-9.075279272460937,-1.2428717529296875,6.915844226074218,0.16202290076335873,0.12279007633587802,-0.05769847328244282,0
9425,-9.046548852539061,-1.2093529296874999,7.049919519042968,-0.05171755725190841,0.22966030534351156,-0.019530534351145046,0
9450,-9.034577844238282,-1.2021703247070312,6.872748596191405,0.024618320610687028,0.3365305343511451,-0.11876717557251915,0
9475,-9.020212634277343,-1.2404775512695312,6.872748596191405,-0.08988549618320618,0.04645419847328247,-0.08059923664122137,0
9500,-9.04176044921875,-1.218929736328125,6.853594982910155,0.009351145038167918,0.06935496183206125,0.09497328244274805,0
9525,-8.998664819335938,-1.2237181396484376,6.973305065917968,-0.05171755725190841,0.3517977099236642,0.011003816793893062,0
9550,-9.008241625976563,-1.257236962890625,6.824864562988281,0.016984732824427473,0.2601946564885498,-0.09586641221374048,0
9575,-8.998664819335938,-1.1997761230468749,6.879931201171875,-0.10515267175572518,0.2525610687022901,-0.06533206106870237,0
9600,-9.032183642578126,-1.171045703125,6.863171789550781,0.03225190839694653,0.32889694656488566,-0.08823282442748093,0
9625,-9.056125659179688,-1.1734399047851563,7.014006494140625,-0.05171755725190841,0.008286259541984808,-0.33250763358778623,0
9650,-8.993876416015624,-1.257236962890625,6.908661621093749,-0.021183206106870245,-0.12911832061068695,-0.17983587786259536,0
9675,-9.013030029296875,-1.1590746948242188,6.865565991210937,0.23072519083969464,0.206759541984733,0.011003816793893062,0
9700,-9.0609140625,-1.238083349609375,6.937392041015625,0.03988549618320608,-0.06804961832061052,-0.019530534351145046,0
9725,-9.032183642578126,-1.2261123413085937,6.9996412841796865,0.10095419847328241,-0.05278244274809141,-0.1264007633587786,0
9750,-9.025001037597656,-1.1973819213867187,6.9613340576171865,-0.021183206106870245,-0.05278244274809141,-0.04243129770992371,0
9776,-8.989088012695312,-1.2117471313476562,6.896690612792968,-0.07461832061068707,0.11515648854961835,-0.14930152671755736,0
9801,-9.02978944091797,-1.218929736328125,6.949363049316406,0.016984732824427473,0.3365305343511451,0.02627099236641217,0
9826,-8.998664819335938,-1.24766015625,6.913450024414062,-0.07461832061068707,0.3517977099236642,-0.08059923664122137,0
9851,-9.051337255859375,-1.2237181396484376,6.913450024414062,-0.028816793893129744,0.45866793893129776,0.04153816793893128,0
9876,-9.039366247558593,-1.24766015625,7.021189099121093,0.009351145038167918,0.3365305343511451,0.018637404580152617,0
9901,-9.075279272460937,-1.1399210815429688,6.927815234374999,-0.17385496183206106,0.3059961832061069,-0.011896946564885491,0
9926,-9.0226068359375,-1.2692079711914062,6.911055822753905,-0.028816793893129744,0.11515648854961835,-0.04243129770992371,0
9951,-9.003453222656251,-1.2548427612304687,6.870354394531249,-0.07461832061068707,0.2754618320610689,-0.04243129770992371,0
9976,-9.0609140625,-1.2213239379882812,6.951757250976562,0.03988549618320608,0.32889694656488566,-0.04243129770992371,0
10001,-9.027395239257812,-1.2524485595703125,7.009218090820312,0.07041984732824424,0.1762251908396948,-0.0271641221374046,0
10026,-9.027395239257812,-1.2548427612304687,6.887113806152343,-0.021183206106870245,0.14569083969465657,-0.04243129770992371,0
10051,-9.02978944091797,-1.2165355346679687,6.987670275878906,-0.07461832061068707,0.13042366412213746,-0.17983587786259536,0
10076,-9.09203868408203,-1.1758341064453124,7.014006494140625,-0.12805343511450384,0.2754618320610689,0.05680534351145039,0
10101,-9.0609140625,-1.2404775512695312,6.958939855957031,0.024618320610687028,0.39759923664122154,-0.04243129770992371,0
10126,-9.02978944091797,-1.2428717529296875,6.934997839355468,-0.15858778625954195,0.49683587786259553,0.11787404580152672,0
10152,-8.991482214355468,-1.2093529296874999,6.908661621093749,-0.12805343511450384,0.42813358778625965,-0.16456870229007647,0
10177,-9.044154650878905,-1.1878051147460937,6.994852880859375,-0.0364503816793893,0.21439312977099245,0.0873396946564885,0
10202,-9.008241625976563,-1.2141413330078124,6.882325402832031,0.016984732824427473,0.10752290076335891,0.0033702290076335073,0
10227,-8.986693811035156,-1.2332949462890626,6.901479016113281,-0.04408396946564885,0.008286259541984808,-0.034797709923664155,0
10252,-9.01542423095703,-1.257236962890625,6.800922546386718,-0.08988549618320618,0.3365305343511451,-0.050064885496183265,0
10277,-9.017818432617187,-1.2309007446289062,6.891902209472655,-0.01354961832061069,0.24492748091603067,0.20947709923664115,0
10302,-9.056125659179688,-1.2237181396484376,6.932603637695312,0.024618320610687028,0.206759541984733,-0.08823282442748093,0
10327,-9.05373145751953,-1.2620253662109375,6.915844226074218,-0.08988549618320618,0.2220267175572519,-0.11876717557251915,0
10352,-8.981905407714844,-1.2524485595703125,6.882325402832031,0.06278625954198469,0.2754618320610689,-0.034797709923664155,0
10377,-9.032183642578126,-1.26681376953125,7.014006494140625,-0.005916030534351191,0.2907290076335878,-0.04243129770992371,0
10402,-9.008241625976563,-1.2237181396484376,6.930209436035155,0.07041984732824424,0.405232824427481,-0.10350000000000004,0
10427,-8.969934399414061,-1.1925935180664062,6.918238427734375,-0.04408396946564885,0.45866793893129776,-0.1264007633587786,0
10452,-9.013030029296875,-1.1925935180664062,6.944574645996093,-0.12041984732824429,0.21439312977099245,-0.034797709923664155,0
10477,-9.05373145751953,-1.24766015625,6.994852880859375,0.03225190839694653,0.2601946564885498,0.0033702290076335073,0
10503,-9.008241625976563,-1.2692079711914062,6.939786242675781,0.024618320610687028,0.16859160305343512,0.11024045801526716,0
10528,-9.005847424316407,-1.2117471313476562,6.918238427734375,-0.0364503816793893,0.16859160305343512,0.0873396946564885,0
10553,-9.046548852539061,-1.1782283081054687,6.798528344726562,-0.17385496183206106,0.2601946564885498,-0.17220229007633592,0
10578,-9.051337255859375,-1.1782283081054687,6.9613340576171865,-0.08225190839694663,0.22966030534351156,-0.07296564885496182,0
10603,-9.0992212890625,-1.1901993164062499,6.994852880859375,-0.17385496183206106,0.24492748091603067,-0.08059923664122137,0
10628,-8.957963391113282,-1.1901993164062499,6.884719604492187,-0.028816793893129744,0.18385877862595423,-0.13403435114503826,0
10653,-9.036972045898438,-1.2452659545898437,6.911055822753905,-0.09751908396946563,0.2907290076335878,-0.004263358778625936,0
10678,-9.008241625976563,-1.1542862915039063,6.889508007812499,-0.15858778625954195,0.321263358778626,0.018637404580152617,0
10703,-9.113586499023437,-1.1662572998046874,6.882325402832031,-0.08225190839694663,0.44340076335877876,-0.004263358778625936,0
10728,-8.974722802734375,-1.2141413330078124,6.968516662597656,-0.08225190839694663,0.10752290076335891,0.0033702290076335073,0
10753,-8.984299609375,-1.2261123413085937,6.987670275878906,0.07041984732824424,0.0006526717557253647,-0.08823282442748093,0
10778,-9.075279272460937,-1.218929736328125,6.911055822753905,0.08568702290076335,-0.08331679389312963,-0.10350000000000004,0
10803,-9.056125659179688,-1.1878051147460937,6.966122460937499,-0.09751908396946563,0.1762251908396948,-0.004263358778625936,0
10828,-9.027395239257812,-1.2404775512695312,7.030765905761718,-0.08988549618320618,0.3670648854961833,-0.07296564885496182,0
10853,-9.04176044921875,-1.238083349609375,6.834441369628905,0.0780534351145038,-0.05278244274809141,0.033904580152671726,0
10879,-9.025001037597656,-1.2452659545898437,6.975699267578125,0.09332061068702285,0.15332442748091624,0.018637404580152617,0
10904,-9.010635827636719,-1.2261123413085937,6.9804876708984365,-0.27309160305343516,0.32889694656488566,0.07970610687022894,0
10929,-9.036972045898438,-1.22850654296875,6.944574645996093,-0.1509541984732825,0.6571412213740458,-0.004263358778625936,0
10954,-9.04176044921875,-1.1901993164062499,6.9230268310546865,-0.12041984732824429,0.8327137404580154,-0.20273664122137414,0
10979,-9.130345910644532,-1.2524485595703125,6.894296411132812,-0.12805343511450384,0.5121030534351146,-0.09586641221374048,0
11004,-9.0609140625,-1.2596311645507812,6.937392041015625,0.14675572519083968,0.24492748091603067,0.02627099236641217,0
11029,-9.051337255859375,-1.2237181396484376,6.891902209472655,-0.005916030534351191,0.2601946564885498,-0.17983587786259536,0
11054,-9.036972045898438,-1.1878051147460937,6.9421804443359365,0.03225190839694653,0.2601946564885498,-0.05769847328244282,0
11079,-9.0226068359375,-1.218929736328125,6.853594982910155,-0.04408396946564885,-0.08331679389312963,0.011003816793893062,0
11104,-9.008241625976563,-1.2404775512695312,6.836835571289062,0.07041984732824424,-0.3657595419847328,0.049171755725190835,0
11129,-8.972328601074219,-1.1830167114257812,6.937392041015625,0.08568702290076335,-0.06804961832061052,0.04153816793893128,0
11154,-8.986693811035156,-1.2213239379882812,6.937392041015625,0.016984732824427473,0.321263358778626,-0.05769847328244282,0
11179,-9.032183642578126,-1.1734399047851563,7.042736914062499,-0.0364503816793893,0.6342404580152673,0.04153816793893128,0
11204,-9.04176044921875,-1.2117471313476562,6.920632629394531,-0.1662213740458015,0.45866793893129776,-0.05769847328244282,0
11229,-8.986693811035156,-1.2141413330078124,6.9038732177734365,-0.12805343511450384,0.5808053435114505,0.049171755725190835,0
11255,-9.020212634277343,-1.2332949462890626,6.906267419433593,-0.01354961832061069,0.42813358778625965,-0.08059923664122137,0
11280,-9.09203868408203,-1.257236962890625,6.901479016113281,-0.04408396946564885,0.42813358778625965,-0.06533206106870237,0
11305,-8.993876416015624,-1.2117471313476562,6.918238427734375,-0.04408396946564885,0.18385877862595423,-0.004263358778625936,0
11330,-9.04176044921875,-1.2548427612304687,7.0355543090820305,0.047519083969465636,-0.014614503816793745,0.033904580152671726,0
11355,-9.089644482421875,-1.2428717529296875,6.872748596191405,-0.05171755725190841,0.18385877862595423,0.04153816793893128,0
11380,-9.068096667480468,-1.2117471313476562,6.9230268310546865,-0.15858778625954195,0.22966030534351156,-0.034797709923664155,0
11405,-9.034577844238282,-1.1901993164062499,6.911055822753905,0.0780534351145038,0.04645419847328247,0.04153816793893128,0
11430,-9.068096667480468,-1.2620253662109375,6.906267419433593,-0.021183206106870245,0.05408778625954214,-0.050064885496183265,0
11455,-9.02978944091797,-1.2045645263671874,6.901479016113281,-0.021183206106870245,0.15332442748091624,-0.050064885496183265,0
11480,-9.025001037597656,-1.1758341064453124,6.954151452636718,-0.08225190839694663,0.5273702290076336,-0.050064885496183265,0
11505,-9.013030029296875,-1.1830167114257812,6.944574645996093,-0.021183206106870245,0.6113396946564886,-0.14930152671755736,0
11530,-9.082461877441407,-1.3003325927734375,7.028371704101562,0.009351145038167918,0.44340076335877876,0.0033702290076335073,0
11555,-9.077673474121093,-1.22850654296875,6.985276074218749,-0.01354961832061069,0.2601946564885498,0.07970610687022894,0
11580,-8.998664819335938,-1.257236962890625,6.920632629394531,0.0017175572519083637,0.31362977099236655,-0.10350000000000004,0
11605,-9.0226068359375,-1.276390576171875,6.911055822753905,-0.04408396946564885,0.2754618320610689,-0.10350000000000004,0
11630,-9.080067675781251,-1.2117471313476562,6.949363049316406,-0.08225190839694663,-0.03751526717557252,-0.011896946564885491,0
11655,-9.032183642578126,-1.1758341064453124,6.913450024414062,-0.028816793893129744,0.16859160305343512,-0.13403435114503826,0
11681,-9.010635827636719,-1.22850654296875,6.951757250976562,0.03988549618320608,0.3670648854961833,0.07207251908396939,0
11706,-9.051337255859375,-1.2117471313476562,6.951757250976562,-0.09751908396946563,0.3670648854961833,0.0033702290076335073,0
11731,-9.017818432617187,-1.1830167114257812,6.937392041015625,-0.05935114503816796,0.32889694656488566,-0.08823282442748093,0
11756,-9.01542423095703,-1.2093529296874999,6.937392041015625,-0.18912213740458017,0.14569083969465657,0.07970610687022894,0
11781,-9.070490869140624,-1.2141413330078124,6.891902209472655,-0.0364503816793893,0.3365305343511451,-0.0271641221374046,0
11806,-8.96514599609375,-1.2165355346679687,6.829652966308593,0.009351145038167918,0.6189732824427482,-0.05769847328244282,0
11831,-9.036972045898438,-1.2500543579101562,6.911055822753905,-0.12041984732824429,0.2678282442748092,0.02627099236641217,0
11856,-9.032183642578126,-1.2644195678710937,6.970910864257812,-0.08988549618320618,0.18385877862595423,-0.07296564885496182,0
11881,-9.003453222656251,-1.1925935180664062,6.875142797851562,0.0780534351145038,-0.029881679389312854,-0.0271641221374046,0
11906,-9.005847424316407,-1.238083349609375,6.844018176269531,0.024618320610687028,0.06935496183206125,0.0033702290076335073,0
11931,-9.068096667480468,-1.1758341064453124,7.030765905761718,-0.005916030534351191,0.28309541984732833,-0.019530534351145046,0
11956,-9.065702465820312,-1.1782283081054687,6.906267419433593,0.009351145038167918,0.206759541984733,-0.09586641221374048,0
11981,-9.010635827636719,-1.2332949462890626,6.951757250976562,0.024618320610687028,0.13042366412213746,0.07970610687022894,0
12006,-9.02978944091797,-1.2021703247070312,6.946968847656249,-0.21202290076335883,0.38233206106870243,-0.21037022900763358,0
12031,-9.036972045898438,-1.1901993164062499,6.896690612792968,-0.20438931297709928,0.4205000000000001,-0.2256374045801527,0
12057,-8.984299609375,-1.2309007446289062,6.932603637695312,0.0017175572519083637,0.2220267175572519,-0.1264007633587786,0
12082,-9.013030029296875,-1.1878051147460937,6.906267419433593,0.009351145038167918,0.2678282442748092,-0.05769847328244282,0
12107,-9.044154650878905,-1.22850654296875,6.913450024414062,0.0017175572519083637,0.22966030534351156,-0.019530534351145046,0
12132,-9.017818432617187,-1.2332949462890626,6.863171789550781,0.06278625954198469,0.08462213740458036,-0.27907251908396946,0
12157,-8.979511206054688,-1.1590746948242188,6.925421032714843,0.016984732824427473,0.1762251908396948,-0.0271641221374046,0
12182,-8.984299609375,-1.2500543579101562,6.877536999511718,0.03225190839694653,-0.06041603053435107,0.10260687022900761,0
12207,-9.115980700683593,-1.2261123413085937,6.932603637695312,-0.08988549618320618,0.28309541984732833,-0.17220229007633592,0
12232,-8.991482214355468,-1.2548427612304687,6.958939855957031,-0.1356870229007634,0.47393511450381687,0.05680534351145039,0
12257,-9.001059020996093,-1.2045645263671874,6.9230268310546865,-0.05935114503816796,0.573171755725191,0.04153816793893128,0
12282,-9.025001037597656,-1.2620253662109375,6.896690612792968,-0.2349236641221374,0.3365305343511451,0.05680534351145039,0
12307,-9.048943054199219,-1.2524485595703125,6.896690612792968,-0.25782442748091605,0.24492748091603067,0.0033702290076335073,0
12332,-9.02978944091797,-1.1997761230468749,6.884719604492187,0.14675572519083968,0.03882061068702303,-0.034797709923664155,0
12357,-8.99627061767578,-1.2332949462890626,6.867960192871093,-0.01354961832061069,0.08462213740458036,-0.019530534351145046,0
12382,-9.063308264160156,-1.22850654296875,6.908661621093749,-0.0364503816793893,-0.1062175572519084,-0.011896946564885491,0
12407,-8.989088012695312,-1.1949877197265624,6.9038732177734365,-0.04408396946564885,0.13805725190839713,-0.2409045801526718,0
12433,-9.058519860839844,-1.2261123413085937,6.867960192871093,-0.05171755725190841,0.16095801526717568,0.07207251908396939,0
12458,-9.01542423095703,-1.2428717529296875,6.906267419433593,-0.07461832061068707,0.5273702290076336,-0.0271641221374046,0
12483,-9.087250280761719,-1.1949877197265624,6.906267419433593,-0.15858778625954195,0.2525610687022901,-0.06533206106870237,0
12508,-9.044154650878905,-1.257236962890625,6.889508007812499,-0.07461832061068707,0.24492748091603067,-0.17220229007633592,0
12533,-9.032183642578126,-1.1782283081054687,6.867960192871093,0.024618320610687028,0.2678282442748092,-0.05769847328244282,0
12558,-8.979511206054688,-1.1901993164062499,6.882325402832031,0.03988549618320608,0.3059961832061069,0.011003816793893062,0
12583,-9.017818432617187,-1.2356891479492187,6.913450024414062,0.024618320610687028,0.38233206106870243,0.07970610687022894,0
12608,-9.084856079101563,-1.1878051147460937,6.9613340576171865,0.024618320610687028,0.0922557251908398,0.11024045801526716,0
12633,-9.020212634277343,-1.2404775512695312,6.877536999511718,-0.10515267175572518,0.1914923664122139,-0.08059923664122137,0
12658,-9.010635827636719,-1.2428717529296875,6.932603637695312,-0.10515267175572518,0.07698854961832069,-0.18746946564885503,0
12683,-9.05373145751953,-1.2237181396484376,6.939786242675781,-0.15858778625954195,0.06935496183206125,-0.1569351145038168,0
12708,-9.068096667480468,-1.1662572998046874,6.9996412841796865,-0.05935114503816796,0.2220267175572519,-0.07296564885496182,0
12733,-9.02978944091797,-1.1471036865234374,6.973305065917968,0.03225190839694653,0.321263358778626,-0.17983587786259536,0
12758,-9.068096667480468,-1.1782283081054687,6.920632629394531,-0.01354961832061069,0.49683587786259553,-0.019530534351145046,0
12783,-9.096827087402342,-1.2141413330078124,6.954151452636718,0.009351145038167918,0.44340076335877876,-0.11876717557251915,0
12808,-9.001059020996093,-1.2356891479492187,6.9421804443359365,-0.12041984732824429,0.34416412213740477,-0.08823282442748093,0
12834,-9.051337255859375,-1.2213239379882812,7.0164006958007805,-0.005916030534351191,0.22966030534351156,-0.08059923664122137,0
12859,-9.056125659179688,-1.2237181396484376,6.990064477539062,-0.01354961832061069,0.206759541984733,-0.21037022900763358,0
12884,-9.09203868408203,-1.2428717529296875,6.896690612792968,0.08568702290076335,0.05408778625954214,-0.08823282442748093,0
12909,-9.010635827636719,-1.1854109130859374,6.887113806152343,0.12385496183206107,0.03118702290076336,-0.019530534351145046,0
12934,-9.077673474121093,-1.2261123413085937,6.982881872558593,0.0017175572519083637,0.3059961832061069,-0.09586641221374048,0
12959,-9.044154650878905,-1.2021703247070312,6.915844226074218,0.14675572519083968,0.15332442748091624,-0.04243129770992371,0
12984,-9.027395239257812,-1.2237181396484376,6.970910864257812,-0.028816793893129744,0.237293893129771,0.0033702290076335073,0
13009,-9.032183642578126,-1.276390576171875,6.882325402832031,-0.028816793893129744,0.1762251908396948,0.049171755725190835,0
13034,-9.013030029296875,-1.1878051147460937,6.865565991210937,0.024618320610687028,0.11515648854961835,-0.004263358778625936,0
13059,-9.068096667480468,-1.2165355346679687,6.896690612792968,-0.07461832061068707,0.12279007633587802,-0.1264007633587786,0
13084,-9.025001037597656,-1.2332949462890626,6.985276074218749,-0.10515267175572518,0.16859160305343512,-0.21800381679389325,0
13109,-9.010635827636719,-1.1494978881835938,6.944574645996093,-0.028816793893129744,0.4205000000000001,0.0033702290076335073,0
13134,-9.077673474121093,-1.24766015625,6.901479016113281,-0.12041984732824429,0.14569083969465657,-0.08059923664122137,0
13159,-9.02978944091797,-1.238083349609375,6.925421032714843,0.15438931297709924,0.10752290076335891,-0.019530534351145046,0
13184,-9.001059020996093,-1.2835731811523436,6.949363049316406,-0.07461832061068707,0.13042366412213746,0.02627099236641217,0
13210,-9.046548852539061,-1.1566804931640624,6.9421804443359365,0.13912213740458013,0.13042366412213746,0.0033702290076335073,0
13235,-8.97711700439453,-1.2045645263671874,6.9230268310546865,0.05515267175572519,0.2754618320610689,0.049171755725190835,0
13260,-9.065702465820312,-1.2021703247070312,6.930209436035155,-0.08225190839694663,0.2907290076335878,0.049171755725190835,0
13285,-8.989088012695312,-1.2309007446289062,6.915844226074218,-0.06698473282442752,0.2220267175572519,-0.11113358778625948,0
13310,-9.10640389404297,-1.2644195678710937,6.927815234374999,-0.1356870229007634,0.28309541984732833,0.04153816793893128,0
13335,-8.99627061767578,-1.2739963745117187,6.855989184570312,0.03988549618320608,0.28309541984732833,0.0033702290076335073,0
13360,-9.02978944091797,-1.2596311645507812,6.968516662597656,0.016984732824427473,0.22966030534351156,0.02627099236641217,0
13385,-8.993876416015624,-1.22850654296875,6.875142797851562,-0.06698473282442752,0.22966030534351156,-0.1264007633587786,0
13410,-8.957963391113282,-1.257236962890625,6.9230268310546865,-0.18912213740458017,0.09988931297709924,-0.1569351145038168,0
13435,-8.991482214355468,-1.2404775512695312,6.906267419433593,-0.028816793893129744,0.11515648854961835,0.011003816793893062,0
13460,-9.025001037597656,-1.2620253662109375,6.901479016113281,0.09332061068702285,0.2525610687022901,-0.019530534351145046,0
13485,-9.0609140625,-1.2045645263671874,6.915844226074218,0.0017175572519083637,0.08462213740458036,0.0873396946564885,0
13510,-9.010635827636719,-1.1806225097656249,6.9972470825195305,0.1925572519083969,0.10752290076335891,-0.019530534351145046,0
13535,-9.046548852539061,-1.2309007446289062,6.918238427734375,-0.14332061068702295,0.3670648854961833,0.02627099236641217,0
13560,-9.084856079101563,-1.2237181396484376,7.006823889160156,-0.10515267175572518,0.5502709923664123,-0.10350000000000004,0
13586,-9.044154650878905,-1.1638630981445313,7.004429687499999,-0.021183206106870245,0.03118702290076336,-0.09586641221374048,0
13611,-8.99627061767578,-1.2332949462890626,6.970910864257812,0.03988549618320608,0.2220267175572519,-0.17983587786259536,0
13636,-9.034577844238282,-1.2332949462890626,6.934997839355468,-0.11278625954198473,0.4357671755725192,0.09497328244274805,0
13661,-9.135134313964844,-1.2500543579101562,6.908661621093749,0.016984732824427473,0.22966030534351156,0.02627099236641217,0
13686,-9.051337255859375,-1.1997761230468749,6.966122460937499,-0.0364503816793893,0.2678282442748092,-0.0271641221374046,0
13711,-9.010635827636719,-1.2356891479492187,6.956545654296875,-0.01354961832061069,0.10752290076335891,0.02627099236641217,0
13736,-8.972328601074219,-1.2500543579101562,6.863171789550781,0.06278625954198469,0.08462213740458036,-0.004263358778625936,0
13761,-9.01542423095703,-1.2261123413085937,6.946968847656249,0.016984732824427473,0.1914923664122139,0.11024045801526716,0
13786,-8.967540197753905,-1.2524485595703125,6.9972470825195305,-0.0364503816793893,0.3059961832061069,-0.004263358778625936,0
13811,-8.99627061767578,-1.1901993164062499,6.887113806152343,-0.01354961832061069,0.05408778625954214,0.07207251908396939,0
13836,-9.080067675781251,-1.218929736328125,6.915844226074218,0.009351145038167918,0.2907290076335878,-0.11876717557251915,0
13861,-9.075279272460937,-1.2213239379882812,6.932603637695312,0.03988549618320608,0.49683587786259553,0.02627099236641217,0
13886,-9.01542423095703,-1.1973819213867187,6.855989184570312,0.07041984732824424,0.3670648854961833,-0.08823282442748093,0
13911,-9.051337255859375,-1.171045703125,6.889508007812499,-0.0364503816793893,0.3059961832061069,0.011003816793893062,0
13936,-9.096827087402342,-1.2165355346679687,6.913450024414062,0.05515267175572519,0.28309541984732833,-0.08823282442748093,0
13961,-9.065702465820312,-1.2332949462890626,6.9780934692382806,0.0017175572519083637,0.023553435114503918,-0.09586641221374048,0
13987,-8.991482214355468,-1.1854109130859374,6.887113806152343,0.0017175572519083637,-0.04514885496183196,0.14077480916030527,0
14012,-9.017818432617187,-1.2261123413085937,6.920632629394531,0.024618320610687028,0.206759541984733,0.10260687022900761,0
14037,-9.089644482421875,-1.2093529296874999,6.932603637695312,-0.01354961832061069,0.2525610687022901,-0.004263358778625936,0
14062,-9.058519860839844,-1.1901993164062499,6.915844226074218,-0.06698473282442752,0.008286259541984808,-0.09586641221374048,0
14087,-9.017818432617187,-1.2644195678710937,6.846412377929687,-0.06698473282442752,0.07698854961832069,0.07207251908396939,0
14112,-8.986693811035156,-1.2069587280273437,6.870354394531249,-0.11278625954198473,0.4510343511450383,-0.11113358778625948,0
14137,-9.005847424316407,-1.2404775512695312,6.975699267578125,-0.10515267175572518,0.3365305343511451,-0.0271641221374046,0
14162,-9.027395239257812,-1.22850654296875,6.855989184570312,-0.2501908396946565,0.1762251908396948,-0.1569351145038168,0
14187,-9.039366247558593,-1.22850654296875,6.956545654296875,0.06278625954198469,0.03118702290076336,-0.050064885496183265,0
14212,-9.025001037597656,-1.2093529296874999,6.958939855957031,0.0780534351145038,0.04645419847328247,0.14077480916030527,0
14237,-9.032183642578126,-1.2069587280273437,7.009218090820312,-0.05171755725190841,0.4357671755725192,-0.0271641221374046,0
14262,-9.025001037597656,-1.1901993164062499,6.934997839355468,-0.028816793893129744,0.03882061068702303,-0.21800381679389325,0
14287,-9.036972045898438,-1.2644195678710937,6.810499353027343,0.07041984732824424,0.16859160305343512,-0.05769847328244282,0
14312,-9.02978944091797,-1.2213239379882812,6.891902209472655,-0.08988549618320618,0.21439312977099245,-0.08059923664122137,0
14337,-9.020212634277343,-1.2332949462890626,6.9996412841796865,0.03225190839694653,0.24492748091603067,-0.04243129770992371,0
14362,-9.01542423095703,-1.2165355346679687,6.9421804443359365,-0.18912213740458017,0.47393511450381687,-0.19510305343511447,0
14388,-9.068096667480468,-1.1901993164062499,6.896690612792968,-0.04408396946564885,0.21439312977099245,-0.011896946564885491,0
14413,-9.058519860839844,-1.2524485595703125,6.9996412841796865,-0.01354961832061069,-0.05278244274809141,-0.019530534351145046,0
14438,-9.075279272460937,-1.2739963745117187,6.934997839355468,-0.05935114503816796,0.31362977099236655,0.04153816793893128,0
14463,-9.108798095703126,-1.2141413330078124,6.870354394531249,0.10095419847328241,0.35943129770992366,-0.14930152671755736,0
14488,-8.969934399414061,-1.218929736328125,6.932603637695312,-0.05935114503816796,0.3517977099236642,0.05680534351145039,0
14513,-9.044154650878905,-1.2979383911132811,6.891902209472655,-0.021183206106870245,0.10752290076335891,-0.04243129770992371,0
14538,-9.005847424316407,-1.171045703125,6.901479016113281,0.20019083969465645,0.24492748091603067,-0.034797709923664155,0
14563,-9.010635827636719,-1.1782283081054687,6.956545654296875,0.14675572519083968,0.21439312977099245,-0.08059923664122137,0
14588,-8.993876416015624,-1.1590746948242188,6.918238427734375,0.14675572519083968,0.03882061068702303,-0.13403435114503826,0
14614,-8.981905407714844,-1.2213239379882812,6.954151452636718,0.047519083969465636,0.13042366412213746,0.049171755725190835,0
14639,-9.070490869140624,-1.2620253662109375,6.882325402832031,0.1696564885496183,0.0922557251908398,-0.019530534351145046,0
14664,-9.032183642578126,-1.161468896484375,6.9804876708984365,-0.04408396946564885,0.21439312977099245,-0.019530534351145046,0
14689,-9.027395239257812,-1.2237181396484376,6.884719604492187,-0.0364503816793893,0.21439312977099245,-0.08059923664122137,0
14714,-9.039366247558593,-1.2141413330078124,6.930209436035155,-0.1356870229007634,0.10752290076335891,-0.07296564885496182,0
14739,-9.070490869140624,-1.257236962890625,6.9230268310546865,-0.08225190839694663,0.4357671755725192,-0.20273664122137414,0
14764,-9.051337255859375,-1.2548427612304687,6.954151452636718,-0.04408396946564885,0.489202290076336,-0.019530534351145046,0
14789,-9.046548852539061,-1.2548427612304687,6.994852880859375,-0.04408396946564885,0.2678282442748092,-0.011896946564885491,0
14814,-9.089644482421875,-1.24766015625,6.958939855957031,-0.005916030534351191,0.015919847328244474,-0.05769847328244282,0
14839,-9.056125659179688,-1.2237181396484376,6.901479016113281,-0.10515267175572518,0.16859160305343512,-0.06533206106870237,0
14864,-9.048943054199219,-1.22850654296875,6.932603637695312,-0.028816793893129744,0.28309541984732833,-0.050064885496183265,0
14889,-8.991482214355468,-1.1973819213867187,6.877536999511718,-0.08988549618320618,0.22966030534351156,-0.1264007633587786,0
14914,-9.003453222656251,-1.24766015625,6.990064477539062,0.08568702290076335,-0.06041603053435107,-0.1264007633587786,0
14939,-9.01542423095703,-1.2045645263671874,6.9613340576171865,-0.028816793893129744,0.2754618320610689,-0.1569351145038168,0
14965,-9.065702465820312,-1.1997761230468749,6.901479016113281,-0.15858778625954195,0.489202290076336,-0.050064885496183265,0
14990,-9.02978944091797,-1.1686515014648438,6.951757250976562,-0.11278625954198473,0.3059961832061069,-0.050064885496183265,0
15015,-9.02978944091797,-1.2165355346679687,6.887113806152343,0.05515267175572519,0.09988931297709924,0.13314122137404572,0
15040,-9.070490869140624,-1.1925935180664062,6.9613340576171865,-0.005916030534351191,0.09988931297709924,-0.05769847328244282,0
15065,-9.068096667480468,-1.24766015625,6.992458679199218,0.024618320610687028,0.32889694656488566,0.07207251908396939,0
15090,-9.020212634277343,-1.2093529296874999,6.9780934692382806,-0.021183206106870245,0.3670648854961833,-0.09586641221374048,0
15115,-9.008241625976563,-1.2261123413085937,6.920632629394531,0.016984732824427473,0.13805725190839713,-0.08059923664122137,0
15140,-9.080067675781251,-1.2644195678710937,6.966122460937499,0.047519083969465636,-0.07568320610687018,-0.10350000000000004,0
15165,-9.032183642578126,-1.238083349609375,6.908661621093749,-0.12041984732824429,0.13805725190839713,-0.1569351145038168,0
15190,-9.025001037597656,-1.2356891479492187,6.884719604492187,-0.028816793893129744,0.21439312977099245,-0.23327099236641236,0
15215,-9.036972045898438,-1.2596311645507812,6.891902209472655,-0.08988549618320618,0.13805725190839713,-0.09586641221374048,0
15240,-9.05373145751953,-1.2452659545898437,6.968516662597656,-0.1356870229007634,0.2678282442748092,-0.08059923664122137,0
15265,-9.034577844238282,-1.1662572998046874,6.860777587890625,0.009351145038167918,0.22966030534351156,-0.050064885496183265,0
15290,-9.096827087402342,-1.2261123413085937,6.901479016113281,-0.06698473282442752,0.15332442748091624,-0.019530534351145046,0
15315,-9.036972045898438,-1.2859673828125,6.949363049316406,0.09332061068702285,0.24492748091603067,0.17894274809160304,0
15340,-9.027395239257812,-1.257236962890625,6.839229772949218,-0.08225190839694663,0.07698854961832069,-0.034797709923664155,0
15366,-9.010635827636719,-1.2309007446289062,6.939786242675781,0.09332061068702285,0.05408778625954214,-0.18746946564885503,0
15391,-9.032183642578126,-1.257236962890625,6.896690612792968,-0.005916030534351191,0.28309541984732833,0.0033702290076335073,0
15416,-9.101615490722656,-1.2093529296874999,6.944574645996093,0.13912213740458013,0.24492748091603067,-0.011896946564885491,0
15441,-9.017818432617187,-1.2644195678710937,6.896690612792968,-0.028816793893129744,0.09988931297709924,-0.07296564885496182,0
15466,-9.09203868408203,-1.2141413330078124,6.870354394531249,0.03225190839694653,0.24492748091603067,-0.1264007633587786,0
15491,-9.020212634277343,-1.2596311645507812,6.870354394531249,0.03988549618320608,0.3365305343511451,0.033904580152671726,0
15516,-9.075279272460937,-1.2261123413085937,6.9780934692382806,0.05515267175572519,0.405232824427481,0.05680534351145039,0
15541,-9.025001037597656,-1.2093529296874999,6.913450024414062,0.009351145038167918,0.35943129770992366,-0.13403435114503826,0
15566,-9.058519860839844,-1.161468896484375,6.865565991210937,-0.10515267175572518,0.2754618320610689,-0.13403435114503826,0
15591,-9.068096667480468,-1.1399210815429688,6.951757250976562,-0.06698473282442752,-0.09858396946564874,0.04153816793893128,0
15616,-9.036972045898438,-1.1566804931640624,6.932603637695312,0.05515267175572519,0.015919847328244474,0.04153816793893128,0
15641,-9.048943054199219,-1.2332949462890626,6.913450024414062,-0.1509541984732825,0.21439312977099245,-0.1264007633587786,0
15666,-8.984299609375,-1.2165355346679687,6.891902209472655,0.03225190839694653,0.32889694656488566,0.07207251908396939,0
15691,-9.027395239257812,-1.2237181396484376,6.913450024414062,0.05515267175572519,0.38233206106870243,-0.05769847328244282,0
15716,-9.044154650878905,-1.1997761230468749,6.870354394531249,-0.1356870229007634,0.1914923664122139,0.0033702290076335073,0
15742,-8.96514599609375,-1.2213239379882812,6.992458679199218,0.0017175572519083637,0.3059961832061069,-0.004263358778625936,0
15767,-9.075279272460937,-1.1686515014648438,6.865565991210937,-0.10515267175572518,0.44340076335877876,-0.07296564885496182,0
15792,-9.048943054199219,-1.276390576171875,6.899084814453125,-0.01354961832061069,0.3059961832061069,-0.1264007633587786,0
15817,-9.058519860839844,-1.2620253662109375,6.899084814453125,-0.0364503816793893,0.10752290076335891,-0.08059923664122137,0
15842,-9.010635827636719,-1.2309007446289062,6.851200781249999,0.10858778625954196,0.09988931297709924,-0.05769847328244282,0
15867,-9.080067675781251,-1.2404775512695312,6.896690612792968,-0.14332061068702295,0.13805725190839713,-0.18746946564885503,0
15892,-9.039366247558593,-1.2620253662109375,6.870354394531249,0.13912213740458013,0.15332442748091624,-0.08059923664122137,0
15917,-9.034577844238282,-1.1830167114257812,6.920632629394531,-0.12805343511450384,0.22966030534351156,-0.1416679389312977,0
15942,-9.02978944091797,-1.2500543579101562,6.975699267578125,0.05515267175572519,0.44340076335877876,-0.07296564885496182,0
15967,-9.005847424316407,-1.2716021728515625,6.932603637695312,-0.05935114503816796,0.5044694656488551,-0.21800381679389325,0
15992,-9.027395239257812,-1.2093529296874999,6.889508007812499,-0.028816793893129744,0.10752290076335891,-0.10350000000000004,0
16017,-8.92683876953125,-1.2428717529296875,6.877536999511718,-0.08225190839694663,0.2220267175572519,-0.10350000000000004,0
16042,-9.07288507080078,-1.24766015625,6.937392041015625,-0.01354961832061069,0.3670648854961833,-0.04243129770992371,0
16067,-9.07288507080078,-1.2692079711914062,7.061890527343749,-0.06698473282442752,0.3365305343511451,-0.08059923664122137,0
16092,-9.001059020996093,-1.1901993164062499,6.956545654296875,-0.09751908396946563,-0.14438549618320606,-0.08059923664122137,0
16118,-9.010635827636719,-1.2332949462890626,6.896690612792968,-0.0364503816793893,-0.04514885496183196,-0.1569351145038168,0
16143,-9.013030029296875,-1.1997761230468749,6.9421804443359365,0.03225190839694653,0.11515648854961835,-0.11113358778625948,0
16168,-9.056125659179688,-1.1901993164062499,6.872748596191405,-0.22729007633587783,0.237293893129771,-0.10350000000000004,0
16193,-9.020212634277343,-1.2213239379882812,6.870354394531249,0.009351145038167918,0.6037061068702291,-0.011896946564885491,0
16218,-9.003453222656251,-1.3099093994140625,6.937392041015625,-0.04408396946564885,0.5579045801526719,-0.20273664122137414,0
16243,-9.096827087402342,-1.2332949462890626,6.944574645996093,-0.08225190839694663,0.5197366412213742,-0.17220229007633592,0
16268,-9.0226068359375,-1.2931499877929686,6.958939855957031,-0.028816793893129744,0.4357671755725192,-0.050064885496183265,0
16293,-9.020212634277343,-1.1854109130859374,6.865565991210937,0.09332061068702285,0.16859160305343512,-0.1264007633587786,0
16318,-9.044154650878905,-1.1806225097656249,6.9230268310546865,0.08568702290076335,-0.02224809160305341,-0.04243129770992371,0
16343,-8.99627061767578,-1.2309007446289062,6.954151452636718,0.13912213740458013,0.14569083969465657,-0.050064885496183265,0
16368,-8.998664819335938,-1.2596311645507812,6.951757250976562,0.024618320610687028,0.2220267175572519,-0.11113358778625948,0
16393,-9.039366247558593,-1.1854109130859374,6.913450024414062,-0.07461832061068707,0.18385877862595423,-0.04243129770992371,0
16418,-9.032183642578126,-1.2548427612304687,6.872748596191405,0.009351145038167918,0.14569083969465657,-0.019530534351145046,0
16443,-9.013030029296875,-1.2045645263671874,7.002035485839843,-0.22729007633587783,0.5426374045801527,-0.11876717557251915,0
16468,-9.046548852539061,-1.2500543579101562,6.906267419433593,-0.1662213740458015,0.3059961832061069,0.0033702290076335073,0
16494,-9.01542423095703,-1.2045645263671874,6.932603637695312,-0.04408396946564885,0.29836259541984744,0.04153816793893128,0
16519,-9.077673474121093,-1.1997761230468749,6.954151452636718,-0.12805343511450384,0.023553435114503918,-0.14930152671755736,0
16544,-9.039366247558593,-1.2237181396484376,6.956545654296875,0.0017175572519083637,-0.15965267175572517,-0.1416679389312977,0
16569,-8.986693811035156,-1.1662572998046874,6.865565991210937,0.06278625954198469,0.015919847328244474,-0.08059923664122137,0
16594,-8.984299609375,-1.218929736328125,6.896690612792968,-0.07461832061068707,0.10752290076335891,-0.17983587786259536,0
16619,-9.068096667480468,-1.1949877197265624,7.030765905761718,-0.01354961832061069,0.21439312977099245,0.10260687022900761,0
16644,-9.04176044921875,-1.2237181396484376,6.800922546386718,-0.10515267175572518,0.5579045801526719,0.033904580152671726,0
16669,-9.001059020996093,-1.2404775512695312,6.930209436035155,-0.1509541984732825,0.2220267175572519,-0.07296564885496182,0
16694,-9.034577844238282,-1.1997761230468749,6.894296411132812,-0.04408396946564885,0.6189732824427482,-0.050064885496183265,0
16719,-9.094432885742187,-1.1997761230468749,6.930209436035155,0.10095419847328241,0.49683587786259553,-0.019530534351145046,0
16744,-9.051337255859375,-1.2644195678710937,6.946968847656249,-0.1509541984732825,0.3365305343511451,-0.11113358778625948,0
16769,-9.027395239257812,-1.1997761230468749,6.946968847656249,-0.1356870229007634,0.08462213740458036,-0.019530534351145046,0
16794,-9.056125659179688,-1.276390576171875,6.913450024414062,0.05515267175572519,-0.06804961832061052,-0.06533206106870237,0
16819,-9.020212634277343,-1.1734399047851563,6.927815234374999,0.16202290076335873,0.13042366412213746,-0.06533206106870237,0
16844,-9.111192297363282,-1.238083349609375,6.937392041015625,-0.0364503816793893,0.1762251908396948,-0.08059923664122137,0
16870,-9.02978944091797,-1.1782283081054687,6.911055822753905,-0.1662213740458015,0.38233206106870243,-0.08059923664122137,0
16895,-9.056125659179688,-1.1854109130859374,6.908661621093749,-0.14332061068702295,0.16095801526717568,-0.06533206106870237,0
16920,-9.02978944091797,-1.1925935180664062,6.930209436035155,-0.1356870229007634,0.2754618320610689,-0.10350000000000004,0
16945,-9.0609140625,-1.22850654296875,6.946968847656249,0.07041984732824424,0.13805725190839713,-0.004263358778625936,0
16970,-9.032183642578126,-1.1997761230468749,6.853594982910155,-0.005916030534351191,0.06172137404580158,-0.11876717557251915,0
16995,-9.02978944091797,-1.257236962890625,6.9230268310546865,0.03225190839694653,0.1762251908396948,-0.011896946564885491,0
17020,-9.07288507080078,-1.2045645263671874,6.920632629394531,-0.2654580152671756,0.22966030534351156,-0.04243129770992371,0
17045,-9.04176044921875,-1.2452659545898437,6.992458679199218,-0.01354961832061069,0.2678282442748092,-0.08059923664122137,0
17070,-8.981905407714844,-1.1878051147460937,6.824864562988281,-0.08225190839694663,-0.02224809160305341,-0.07296564885496182,0
17095,-9.075279272460937,-1.2500543579101562,6.9780934692382806,0.05515267175572519,-0.03751526717557252,-0.04243129770992371,0
17120,-9.056125659179688,-1.2332949462890626,6.839229772949218,-0.005916030534351191,0.1914923664122139,-0.16456870229007647,0
17145,-9.027395239257812,-1.218929736328125,6.872748596191405,-0.005916030534351191,0.3365305343511451,-0.17983587786259536,0
17170,-9.07288507080078,-1.2261123413085937,6.867960192871093,0.05515267175572519,0.38233206106870243,0.16367557251908393,0
17195,-9.0226068359375,-1.2069587280273437,6.920632629394531,-0.04408396946564885,0.22966030534351156,-0.0271641221374046,0
17220,-9.096827087402342,-1.2452659545898437,6.844018176269531,-0.0364503816793893,0.2678282442748092,-0.019530534351145046,0
17246,-8.998664819335938,-1.2165355346679687,6.990064477539062,-0.04408396946564885,0.3365305343511451,0.018637404580152617,0
17271,-9.017818432617187,-1.2141413330078124,6.937392041015625,-0.05171755725190841,0.11515648854961835,0.07970610687022894,0
17296,-9.01542423095703,-1.2332949462890626,6.968516662597656,0.0780534351145038,0.29836259541984744,-0.019530534351145046,0
17321,-9.080067675781251,-1.24766015625,7.033160107421875,0.047519083969465636,0.3059961832061069,0.16367557251908393,0
17346,-9.032183642578126,-1.2404775512695312,6.899084814453125,-0.005916030534351191,0.06935496183206125,0.04153816793893128,0
17371,-9.02978944091797,-1.1973819213867187,6.870354394531249,-0.12041984732824429,0.37469847328244277,-0.050064885496183265,0
17396,-8.99627061767578,-1.2093529296874999,6.985276074218749,-0.15858778625954195,0.3365305343511451,0.07207251908396939,0
17421,-9.02978944091797,-1.2021703247070312,6.946968847656249,-0.05171755725190841,0.29836259541984744,-0.05769847328244282,0
17446,-9.089644482421875,-1.1734399047851563,6.913450024414062,-0.05935114503816796,0.237293893129771,-0.10350000000000004,0
17471,-9.051337255859375,-1.2428717529296875,6.851200781249999,0.024618320610687028,0.29836259541984744,0.018637404580152617,0
17496,-9.010635827636719,-1.1901993164062499,6.839229772949218,0.12385496183206107,0.22966030534351156,0.16367557251908393,0
17521,-9.077673474121093,-1.1901993164062499,6.9972470825195305,-0.01354961832061069,0.023553435114503918,0.011003816793893062,0
17546,-9.01542423095703,-1.161468896484375,6.908661621093749,0.07041984732824424,0.09988931297709924,0.07207251908396939,0
17571,-9.039366247558593,-1.2093529296874999,6.951757250976562,0.16202290076335873,0.10752290076335891,0.011003816793893062,0
17596,-9.07288507080078,-1.2093529296874999,6.841623974609375,-0.07461832061068707,0.2601946564885498,0.0033702290076335073,0
17622,-9.065702465820312,-1.276390576171875,6.944574645996093,-0.10515267175572518,0.4357671755725192,-0.11876717557251915,0
17647,-9.01542423095703,-1.2620253662109375,6.894296411132812,-0.10515267175572518,0.18385877862595423,-0.14930152671755736,0
17672,-9.048943054199219,-1.2404775512695312,6.913450024414062,-0.07461832061068707,0.1762251908396948,-0.019530534351145046,0
17697,-9.056125659179688,-1.2692079711914062,6.932603637695312,-0.1509541984732825,0.24492748091603067,-0.09586641221374048,0
17722,-9.080067675781251,-1.2117471313476562,6.896690612792968,-0.1662213740458015,0.4205000000000001,-0.08823282442748093,0
17747,-9.04176044921875,-1.1901993164062499,6.829652966308593,-0.021183206106870245,0.16095801526717568,0.1713091603053435,0
17772,-9.101615490722656,-1.1830167114257812,6.913450024414062,0.14675572519083968,0.06172137404580158,-0.004263358778625936,0
17797,-9.025001037597656,-1.1758341064453124,6.954151452636718,0.047519083969465636,0.015919847328244474,0.09497328244274805,0
17822,-9.01542423095703,-1.2117471313476562,6.946968847656249,-0.05935114503816796,0.19912595419847334,0.06443893129770983,0
17847,-9.056125659179688,-1.2213239379882812,6.836835571289062,-0.06698473282442752,0.49683587786259553,-0.10350000000000004,0
17873,-9.032183642578126,-1.2261123413085937,6.992458679199218,-0.15858778625954195,0.47393511450381687,0.02627099236641217,0
17898,-9.04176044921875,-1.2404775512695312,6.913450024414062,-0.08988549618320618,0.3365305343511451,-0.13403435114503826,0
17923,-9.087250280761719,-1.2309007446289062,6.915844226074218,-0.1509541984732825,0.18385877862595423,-0.08823282442748093,0
17949,-9.075279272460937,-1.24766015625,6.853594982910155,-0.028816793893129744,0.3517977099236642,-0.1569351145038168,0
17974,-9.070490869140624,-1.2309007446289062,6.9613340576171865,-0.01354961832061069,0.4510343511450383,-0.10350000000000004,0
17999,-9.0992212890625,-1.1949877197265624,6.836835571289062,-0.0364503816793893,0.4510343511450383,-0.011896946564885491,0
18024,-9.02978944091797,-1.2548427612304687,6.973305065917968,0.1925572519083969,-0.2207213740458014,-0.08059923664122137,0
18049,-9.048943054199219,-1.2859673828125,6.884719604492187,0.10858778625954196,-0.4115610687022899,-0.034797709923664155,0
18074,-9.032183642578126,-1.2644195678710937,6.870354394531249,0.2612595419847328,-0.1367519083969464,-0.16456870229007647,0
18099,-9.036972045898438,-1.1854109130859374,6.958939855957031,-0.005916030534351191,0.2678282442748092,0.09497328244274805,0
18124,-9.0609140625,-1.2524485595703125,6.863171789550781,-0.08225190839694663,0.16095801526717568,-0.05769847328244282,0
18149,-9.07288507080078,-1.2141413330078124,6.946968847656249,-0.021183206106870245,0.3365305343511451,-0.04243129770992371,0
18174,-9.056125659179688,-1.1949877197265624,6.877536999511718,-0.07461832061068707,0.5044694656488551,-0.11113358778625948,0
18199,-9.070490869140624,-1.2237181396484376,6.906267419433593,-0.10515267175572518,0.2754618320610689,-0.06533206106870237,0
18224,-9.048943054199219,-1.2644195678710937,6.925421032714843,-0.09751908396946563,0.35943129770992366,-0.050064885496183265,0
18249,-9.07288507080078,-1.2835731811523436,6.932603637695312,0.016984732824427473,0.32889694656488566,-0.06533206106870237,0
18274,-9.070490869140624,-1.2237181396484376,6.865565991210937,0.08568702290076335,0.008286259541984808,-0.14930152671755736,0
18299,-9.120769104003905,-1.2069587280273437,6.973305065917968,0.06278625954198469,0.1762251908396948,-0.0271641221374046,0
18324,-9.087250280761719,-1.1566804931640624,6.949363049316406,0.06278625954198469,0.13805725190839713,-0.050064885496183265,0
18350,-9.044154650878905,-1.2261123413085937,6.937392041015625,0.07041984732824424,0.2907290076335878,0.05680534351145039,0
18375,-9.101615490722656,-1.2811789794921875,6.906267419433593,0.08568702290076335,0.0006526717557253647,0.05680534351145039,0
18400,-9.044154650878905,-1.2141413330078124,6.927815234374999,0.07041984732824424,0.18385877862595423,0.033904580152671726,0
18425,-9.001059020996093,-1.1949877197265624,6.877536999511718,-0.2807251908396947,0.5121030534351146,-0.0271641221374046,0
18450,-8.986693811035156,-1.218929736328125,7.057102124023436,-0.08225190839694663,0.6418740458015268,-0.11113358778625948,0
18475,-9.056125659179688,-1.218929736328125,6.848806579589843,-0.1662213740458015,0.41286641221374065,0.049171755725190835,0
18501,-9.020212634277343,-1.2141413330078124,6.844018176269531,0.11622137404580152,-0.014614503816793745,-0.11876717557251915,0
18526,-8.998664819335938,-1.2093529296874999,6.920632629394531,-0.028816793893129744,-0.006980916030534301,0.011003816793893062,0
18551,-9.051337255859375,-1.2404775512695312,6.875142797851562,-0.08988549618320618,0.015919847328244474,-0.011896946564885491,0
18576,-9.036972045898438,-1.1830167114257812,6.915844226074218,-0.028816793893129744,0.237293893129771,-0.08823282442748093,0
18601,-8.998664819335938,-1.1973819213867187,6.887113806152343,0.0017175572519083637,0.07698854961832069,-0.0271641221374046,0
18626,-8.955569189453126,-1.2596311645507812,6.872748596191405,0.03988549618320608,0.10752290076335891,0.0033702290076335073,0
18651,-9.02978944091797,-1.2332949462890626,6.867960192871093,0.03988549618320608,0.0006526717557253647,0.07207251908396939,0
18676,-9.089644482421875,-1.2069587280273437,6.944574645996093,-0.12805343511450384,0.2754618320610689,-0.09586641221374048,0
18701,-9.036972045898438,-1.2332949462890626,6.918238427734375,-0.2196564885496184,0.489202290076336,-0.1416679389312977,0
18726,-9.017818432617187,-1.2093529296874999,6.911055822753905,0.08568702290076335,0.1914923664122139,-0.08823282442748093,0
18751,-9.01542423095703,-1.218929736328125,6.908661621093749,0.08568702290076335,0.13042366412213746,0.05680534351145039,0
18776,-9.0609140625,-1.1925935180664062,6.793739941406249,-0.0364503816793893,0.09988931297709924,0.02627099236641217,0
18801,-9.068096667480468,-1.22850654296875,6.920632629394531,-0.005916030534351191,-0.06041603053435107,-0.1569351145038168,0
18827,-8.989088012695312,-1.2117471313476562,6.925421032714843,-0.05935114503816796,0.18385877862595423,-0.06533206106870237,0
18852,-9.044154650878905,-1.1925935180664062,6.839229772949218,0.0780534351145038,0.03882061068702303,-0.034797709923664155,0
18877,-9.039366247558593,-1.1878051147460937,6.872748596191405,-0.1356870229007634,0.15332442748091624,-0.004263358778625936,0
18902,-9.046548852539061,-1.2261123413085937,7.033160107421875,0.047519083969465636,0.321263358778626,-0.004263358778625936,0
18927,-9.068096667480468,-1.2021703247070312,6.839229772949218,0.0780534351145038,0.34416412213740477,-0.17220229007633592,0
18952,-9.046548852539061,-1.2117471313476562,6.891902209472655,-0.1662213740458015,0.573171755725191,0.0033702290076335073,0
18977,-9.07288507080078,-1.2500543579101562,6.865565991210937,-0.12805343511450384,0.41286641221374065,0.011003816793893062,0
19002,-9.005847424316407,-1.1854109130859374,6.927815234374999,0.016984732824427473,0.32889694656488566,-0.06533206106870237,0
19027,-9.05373145751953,-1.1973819213867187,6.887113806152343,0.016984732824427473,0.11515648854961835,-0.16456870229007647,0
19052,-9.020212634277343,-1.2692079711914062,6.836835571289062,0.03225190839694653,0.2907290076335878,-0.07296564885496182,0
19077,-9.017818432617187,-1.1878051147460937,6.844018176269531,0.024618320610687028,-0.05278244274809141,-0.18746946564885503,0
19102,-9.051337255859375,-1.2141413330078124,6.932603637695312,-0.01354961832061069,0.37469847328244277,-0.034797709923664155,0
19127,-9.058519860839844,-1.1973819213867187,6.853594982910155,0.05515267175572519,0.06935496183206125,-0.19510305343511447,0
19152,-8.998664819335938,-1.1901993164062499,6.958939855957031,0.016984732824427473,0.16859160305343512,-0.06533206106870237,0
19177,-8.97711700439453,-1.2428717529296875,6.884719604492187,-0.028816793893129744,0.34416412213740477,0.07207251908396939,0
19202,-9.013030029296875,-1.3218804077148436,6.939786242675781,-0.01354961832061069,0.24492748091603067,0.09497328244274805,0
19228,-9.039366247558593,-1.2524485595703125,6.927815234374999,-0.021183206106870245,0.5808053435114505,0.04153816793893128,0
19253,-8.99627061767578,-1.2045645263671874,6.877536999511718,0.06278625954198469,0.206759541984733,-0.050064885496183265,0
19278,-8.972328601074219,-1.2117471313476562,6.968516662597656,0.0780534351145038,-0.04514885496183196,-0.004263358778625936,0
19303,-8.998664819335938,-1.2093529296874999,6.817681958007812,-0.06698473282442752,0.21439312977099245,-0.07296564885496182,0
19328,-9.027395239257812,-1.257236962890625,6.9421804443359365,0.07041984732824424,0.023553435114503918,-0.1416679389312977,0
19353,-9.0226068359375,-1.1806225097656249,6.968516662597656,0.0780534351145038,0.2601946564885498,-0.09586641221374048,0
19378,-9.044154650878905,-1.24766015625,6.985276074218749,-0.07461832061068707,0.15332442748091624,-0.04243129770992371,0
19403,-9.010635827636719,-1.2332949462890626,6.865565991210937,0.009351145038167918,0.22966030534351156,-0.019530534351145046,0
19428,-9.051337255859375,-1.1590746948242188,6.932603637695312,-0.15858778625954195,0.7029427480916032,0.07207251908396939,0
19453,-8.993876416015624,-1.1925935180664062,6.994852880859375,-0.2349236641221374,0.3670648854961833,-0.004263358778625936,0
19478,-8.984299609375,-1.2548427612304687,6.911055822753905,-0.11278625954198473,0.16095801526717568,-0.011896946564885491,0
19503,-9.034577844238282,-1.2332949462890626,6.973305065917968,-0.17385496183206106,0.023553435114503918,-0.0271641221374046,0
19528,-8.974722802734375,-1.2907557861328125,6.894296411132812,-0.06698473282442752,0.11515648854961835,-0.004263358778625936,0
19553,-9.01542423095703,-1.1949877197265624,6.918238427734375,-0.028816793893129744,0.05408778625954214,-0.0271641221374046,0
19578,-8.991482214355468,-1.2428717529296875,6.860777587890625,-0.05935114503816796,0.09988931297709924,-0.13403435114503826,0
19604,-9.063308264160156,-1.238083349609375,6.994852880859375,0.016984732824427473,0.03118702290076336,0.07207251908396939,0
19629,-9.051337255859375,-1.2692079711914062,6.982881872558593,-0.021183206106870245,0.08462213740458036,0.06443893129770983,0
19654,-9.0609140625,-1.1830167114257812,6.918238427734375,0.03988549618320608,0.37469847328244277,-0.17220229007633592,0
19679,-9.005847424316407,-1.1279500732421874,6.920632629394531,-0.10515267175572518,0.237293893129771,-0.050064885496183265,0
19704,-9.046548852539061,-1.2428717529296875,6.875142797851562,-0.14332061068702295,0.489202290076336,0.13314122137404572,0
19729,-9.084856079101563,-1.2548427612304687,6.860777587890625,-0.12041984732824429,0.35943129770992366,-0.011896946564885491,0
19754,-9.046548852539061,-1.2404775512695312,6.896690612792968,-0.0364503816793893,0.03882061068702303,-0.07296564885496182,0
19779,-9.084856079101563,-1.22850654296875,6.934997839355468,-0.0364503816793893,0.19912595419847334,0.018637404580152617,0
19804,-9.013030029296875,-1.1949877197265624,7.0164006958007805,-0.01354961832061069,0.32889694656488566,0.033904580152671726,0
19829,-9.044154650878905,-1.2261123413085937,6.9613340576171865,0.17729007633587784,0.2525610687022901,-0.050064885496183265,0
19854,-9.032183642578126,-1.2309007446289062,6.932603637695312,-0.01354961832061069,-0.014614503816793745,-0.034797709923664155,0
19879,-9.025001037597656,-1.1997761230468749,6.949363049316406,-0.09751908396946563,0.1762251908396948,-0.13403435114503826,0
19904,-9.032183642578126,-1.24766015625,6.968516662597656,-0.01354961832061069,0.3670648854961833,-0.034797709923664155,0
19929,-9.02978944091797,-1.2237181396484376,6.975699267578125,-0.10515267175572518,0.21439312977099245,-0.10350000000000004,0
19954,-8.989088012695312,-1.2739963745117187,6.812893554687499,-0.005916030534351191,0.07698854961832069,-0.16456870229007647,0
19979,-9.048943054199219,-1.1925935180664062,6.863171789550781,-0.021183206106870245,0.0922557251908398,-0.05769847328244282,0
20005,-9.080067675781251,-1.2452659545898437,6.956545654296875,0.07041984732824424,0.1914923664122139,-0.05769847328244282,0
20030,-9.046548852539061,-1.2237181396484376,6.915844226074218,-0.1662213740458015,0.2754618320610689,-0.004263358778625936,0
20055,-9.013030029296875,-1.238083349609375,6.944574645996093,0.024618320610687028,0.04645419847328247,-0.17983587786259536,0
20080,-9.082461877441407,-1.2261123413085937,6.894296411132812,-0.09751908396946563,-0.11385114503816784,-0.050064885496183265,0
20105,-9.044154650878905,-1.1830167114257812,6.884719604492187,-0.04408396946564885,0.09988931297709924,-0.11113358778625948,0
20130,-9.044154650878905,-1.2261123413085937,6.970910864257812,-0.12805343511450384,0.4205000000000001,0.07207251908396939,0
20155,-9.005847424316407,-1.2141413330078124,6.932603637695312,-0.05171755725190841,0.34416412213740477,-0.05769847328244282,0
20180,-9.013030029296875,-1.2213239379882812,6.963728259277343,0.12385496183206107,0.19912595419847334,-0.05769847328244282,0
20205,-9.048943054199219,-1.2069587280273437,6.934997839355468,0.009351145038167918,-0.14438549618320606,-0.17220229007633592,0
20230,-9.048943054199219,-1.1973819213867187,6.879931201171875,-0.08988549618320618,0.2601946564885498,0.04153816793893128,0
20255,-9.058519860839844,-1.26681376953125,7.004429687499999,-0.07461832061068707,0.37469847328244277,-0.034797709923664155,0
20280,-8.957963391113282,-1.2093529296874999,6.812893554687499,-0.07461832061068707,0.321263358778626,-0.05769847328244282,0
20305,-9.05373145751953,-1.2069587280273437,6.875142797851562,-0.04408396946564885,0.19912595419847334,0.0873396946564885,0
20330,-9.077673474121093,-1.257236962890625,6.927815234374999,0.10095419847328241,-0.14438549618320606,-0.019530534351145046,0
20355,-9.013030029296875,-1.1901993164062499,6.925421032714843,0.0017175572519083637,0.12279007633587802,0.06443893129770983,0
20380,-9.084856079101563,-1.2859673828125,6.987670275878906,0.016984732824427473,0.5273702290076336,-0.08059923664122137,0
20405,-9.017818432617187,-1.1901993164062499,6.844018176269531,-0.1356870229007634,0.5197366412213742,-0.034797709923664155,0
20431,-9.046548852539061,-1.1973819213867187,6.956545654296875,0.03225190839694653,0.07698854961832069,0.018637404580152617,0
20456,-8.962751794433593,-1.2500543579101562,6.884719604492187,0.047519083969465636,-0.12148473282442729,0.10260687022900761,0
20481,-9.065702465820312,-1.2093529296874999,6.906267419433593,0.047519083969465636,0.09988931297709924,0.05680534351145039,0
20506,-9.003453222656251,-1.1878051147460937,6.911055822753905,-0.08225190839694663,0.3670648854961833,0.049171755725190835,0
20531,-8.991482214355468,-1.1878051147460937,6.891902209472655,0.047519083969465636,0.31362977099236655,0.09497328244274805,0
20556,-8.99627061767578,-1.22850654296875,6.908661621093749,0.06278625954198469,0.1762251908396948,-0.050064885496183265,0
20581,-8.974722802734375,-1.1997761230468749,6.9613340576171865,0.10095419847328241,-0.1367519083969464,-0.06533206106870237,0
20606,-9.101615490722656,-1.1830167114257812,6.915844226074218,0.03988549618320608,0.16859160305343512,-0.16456870229007647,0
20631,-9.039366247558593,-1.2261123413085937,6.930209436035155,0.13912213740458013,0.2601946564885498,-0.04243129770992371,0
20656,-9.005847424316407,-1.2835731811523436,6.932603637695312,0.009351145038167918,0.38233206106870243,-0.034797709923664155,0
20681,-9.080067675781251,-1.2237181396484376,6.949363049316406,-0.07461832061068707,0.19912595419847334,-0.04243129770992371,0
20706,-9.032183642578126,-1.1973819213867187,6.784163134765624,-0.08988549618320618,0.03882061068702303,-0.05769847328244282,0
20733,-9.075279272460937,-1.2692079711914062,6.975699267578125,-0.18148854961832062,0.2907290076335878,-0.05769847328244282,0
20758,-9.01542423095703,-1.26681376953125,6.944574645996093,0.009351145038167918,0.45866793893129776,-0.16456870229007647,0
20785,-9.082461877441407,-1.2404775512695312,6.824864562988281,0.06278625954198469,0.39759923664122154,-0.0271641221374046,0
20810,-9.075279272460937,-1.24766015625,6.963728259277343,-0.1662213740458015,0.08462213740458036,0.07970610687022894,0
20835,-9.044154650878905,-1.2404775512695312,6.896690612792968,-0.09751908396946563,0.09988931297709924,-0.1416679389312977,0
20860,-9.048943054199219,-1.2117471313476562,6.9038732177734365,-0.005916030534351191,-0.006980916030534301,-0.019530534351145046,0
20886,-9.05373145751953,-1.2332949462890626,6.992458679199218,0.009351145038167918,0.09988931297709924,-0.004263358778625936,0
20911,-9.05373145751953,-1.1901993164062499,6.973305065917968,-0.01354961832061069,-0.06804961832061052,0.02627099236641217,0
20936,-9.068096667480468,-1.2356891479492187,6.911055822753905,0.024618320610687028,-0.1367519083969464,-0.04243129770992371,0
20961,-9.020212634277343,-1.171045703125,6.930209436035155,0.016984732824427473,0.321263358778626,-0.011896946564885491,0
20986,-9.036972045898438,-1.2596311645507812,6.867960192871093,-0.14332061068702295,0.6037061068702291,0.018637404580152617,0
21011,-9.034577844238282,-1.2716021728515625,6.829652966308593,-0.09751908396946563,0.37469847328244277,-0.08059923664122137,0
21036,-9.039366247558593,-1.2213239379882812,6.920632629394531,0.03225190839694653,0.2754618320610689,0.011003816793893062,0
21061,-9.027395239257812,-1.2428717529296875,6.944574645996093,-0.12041984732824429,0.0922557251908398,-0.06533206106870237,0
21086,-9.056125659179688,-1.1949877197265624,6.906267419433593,-0.15858778625954195,0.11515648854961835,-0.11113358778625948,0
21111,-9.032183642578126,-1.2859673828125,6.920632629394531,0.1849236641221374,0.2907290076335878,-0.004263358778625936,0
21136,-9.0609140625,-1.1734399047851563,6.9780934692382806,0.03988549618320608,-0.19782061068702284,0.02627099236641217,0
21161,-9.068096667480468,-1.2309007446289062,6.851200781249999,0.207824427480916,-0.1062175572519084,-0.04243129770992371,0
21186,-9.063308264160156,-1.2213239379882812,6.858383386230468,-0.04408396946564885,0.2907290076335878,-0.13403435114503826,0
21211,-8.957963391113282,-1.2309007446289062,6.915844226074218,-0.05171755725190841,0.13042366412213746,0.049171755725190835,0
21236,-9.084856079101563,-1.1758341064453124,6.949363049316406,0.016984732824427473,0.3670648854961833,-0.019530534351145046,0
21261,-9.096827087402342,-1.1686515014648438,6.958939855957031,-0.11278625954198473,0.16095801526717568,0.018637404580152617,0
21287,-9.065702465820312,-1.1782283081054687,6.944574645996093,-0.14332061068702295,0.2525610687022901,-0.0271641221374046,0
21312,-9.005847424316407,-1.218929736328125,6.891902209472655,0.10095419847328241,0.28309541984732833,0.0033702290076335073,0
21337,-9.044154650878905,-1.2332949462890626,6.9613340576171865,-0.021183206106870245,0.15332442748091624,-0.08823282442748093,0
21362,-8.99627061767578,-1.238083349609375,7.009218090820312,-0.028816793893129744,0.03882061068702303,0.07207251908396939,0
21387,-9.070490869140624,-1.2141413330078124,6.944574645996093,0.009351145038167918,0.04645419847328247,-0.08823282442748093,0
21412,-9.065702465820312,-1.2500543579101562,6.9780934692382806,0.07041984732824424,0.3365305343511451,-0.05769847328244282,0
21437,-9.080067675781251,-1.2332949462890626,6.870354394531249,-0.11278625954198473,0.16095801526717568,-0.17220229007633592,0
21462,-9.017818432617187,-1.2452659545898437,6.925421032714843,0.08568702290076335,0.28309541984732833,-0.08059923664122137,0
21487,-9.070490869140624,-1.2141413330078124,7.002035485839843,-0.07461832061068707,0.3517977099236642,0.033904580152671726,0
21512,-9.027395239257812,-1.22850654296875,6.9613340576171865,-0.005916030534351191,0.31362977099236655,0.07970610687022894,0
21537,-9.087250280761719,-1.2309007446289062,6.884719604492187,-0.1509541984732825,0.1914923664122139,0.011003816793893062,0
21562,-8.97711700439453,-1.1590746948242188,6.889508007812499,-0.05171755725190841,0.10752290076335891,-0.11876717557251915,0
21587,-9.036972045898438,-1.3003325927734375,7.011612292480468,0.07041984732824424,0.03882061068702303,0.018637404580152617,0
21612,-9.01542423095703,-1.1973819213867187,6.9780934692382806,-0.04408396946564885,-0.06804961832061052,-0.034797709923664155,0
21637,-9.01542423095703,-1.218929736328125,6.875142797851562,-0.0364503816793893,0.38233206106870243,-0.20273664122137414,0
21663,-9.05373145751953,-1.2141413330078124,6.9038732177734365,-0.01354961832061069,0.3365305343511451,0.0033702290076335073,0
21688,-9.036972045898438,-1.2332949462890626,6.870354394531249,0.05515267175572519,0.2525610687022901,-0.11876717557251915,0
21713,-9.020212634277343,-1.2524485595703125,6.899084814453125,-0.15858778625954195,0.237293893129771,-0.050064885496183265,0
21738,-9.058519860839844,-1.2404775512695312,6.867960192871093,-0.1356870229007634,0.2525610687022901,-0.14930152671755736,0
21763,-9.034577844238282,-1.2045645263671874,6.939786242675781,0.0017175572519083637,0.09988931297709924,-0.08059923664122137,0
21788,-9.005847424316407,-1.2069587280273437,6.889508007812499,-0.18148854961832062,0.15332442748091624,0.011003816793893062,0
21813,-9.001059020996093,-1.257236962890625,6.954151452636718,0.14675572519083968,0.39759923664122154,0.16367557251908393,0
21838,-8.991482214355468,-1.2261123413085937,6.894296411132812,-0.07461832061068707,0.13042366412213746,-0.04243129770992371,0
21863,-8.998664819335938,-1.2165355346679687,6.839229772949218,-0.005916030534351191,0.03882061068702303,0.06443893129770983,0
21888,-9.084856079101563,-1.2404775512695312,6.887113806152343,-0.1356870229007634,0.2678282442748092,-0.08059923664122137,0
21913,-8.957963391113282,-1.24766015625,6.949363049316406,-0.01354961832061069,0.5121030534351146,-0.17220229007633592,0
21938,-9.005847424316407,-1.24766015625,6.875142797851562,-0.12805343511450384,0.16095801526717568,-0.08823282442748093,0
21963,-9.036972045898438,-1.1686515014648438,6.889508007812499,0.0780534351145038,0.2601946564885498,0.04153816793893128,0
21988,-9.070490869140624,-1.257236962890625,6.844018176269531,0.06278625954198469,0.38233206106870243,-0.034797709923664155,0
22013,-9.07288507080078,-1.257236962890625,6.970910864257812,-0.19675572519083973,0.5350038167938932,-0.08823282442748093,0
22038,-9.039366247558593,-1.2165355346679687,6.982881872558593,-0.09751908396946563,0.08462213740458036,0.0033702290076335073,0
22064,-8.981905407714844,-1.2141413330078124,6.932603637695312,-0.005916030534351191,-0.09858396946564874,0.09497328244274805,0
22089,-9.063308264160156,-1.2428717529296875,6.9613340576171865,-0.0364503816793893,0.07698854961832069,-0.05769847328244282,0
22114,-9.077673474121093,-1.2045645263671874,6.946968847656249,0.11622137404580152,0.06172137404580158,-0.034797709923664155,0
22139,-9.077673474121093,-1.2811789794921875,6.932603637695312,-0.08988549618320618,0.31362977099236655,0.04153816793893128,0
22164,-9.01542423095703,-1.218929736328125,6.844018176269531,-0.1356870229007634,0.13805725190839713,-0.09586641221374048,0
22189,-9.068096667480468,-1.2093529296874999,6.949363049316406,-0.18912213740458017,0.11515648854961835,0.02627099236641217,0
22214,-9.010635827636719,-1.1901993164062499,6.939786242675781,-0.021183206106870245,0.405232824427481,0.0033702290076335073,0
22239,-9.048943054199219,-1.1997761230468749,6.908661621093749,-0.06698473282442752,0.1914923664122139,-0.06533206106870237,0
22264,-9.01542423095703,-1.2165355346679687,6.920632629394531,-0.021183206106870245,0.10752290076335891,-0.034797709923664155,0
22289,-9.017818432617187,-1.1997761230468749,6.867960192871093,0.06278625954198469,-0.1062175572519084,-0.1264007633587786,0
22314,-9.09203868408203,-1.2213239379882812,6.975699267578125,0.10095419847328241,0.03882061068702303,-0.08059923664122137,0
22339,-9.008241625976563,-1.2332949462890626,6.963728259277343,-0.05935114503816796,0.0922557251908398,0.049171755725190835,0
22364,-9.056125659179688,-1.2237181396484376,6.896690612792968,-0.24255725190839694,0.32889694656488566,-0.11876717557251915,0
22389,-9.02978944091797,-1.2213239379882812,6.884719604492187,-0.19675572519083973,0.6037061068702291,-0.17220229007633592,0
22414,-9.003453222656251,-1.2428717529296875,6.906267419433593,0.07041984732824424,0.237293893129771,-0.05769847328244282,0
22439,-9.0609140625,-1.2692079711914062,6.913450024414062,0.0017175572519083637,0.03882061068702303,-0.07296564885496182,0
22464,-8.972328601074219,-1.2045645263671874,6.927815234374999,-0.05935114503816796,0.09988931297709924,0.049171755725190835,0
22490,-9.010635827636719,-1.238083349609375,6.966122460937499,0.03225190839694653,0.37469847328244277,-0.1569351145038168,0
22515,-9.056125659179688,-1.22850654296875,6.973305065917968,-0.14332061068702295,0.11515648854961835,-0.05769847328244282,0
22540,-9.065702465820312,-1.24766015625,6.877536999511718,-0.17385496183206106,0.1762251908396948,-0.08059923664122137,0
22565,-9.003453222656251,-1.2093529296874999,6.949363049316406,-0.12041984732824429,0.13042366412213746,-0.09586641221374048,0
22590,-8.993876416015624,-1.2596311645507812,6.870354394531249,-0.01354961832061069,-0.08331679389312963,-0.24853816793893124,0
22615,-9.05373145751953,-1.3410340209960938,7.009218090820312,-0.07461832061068707,0.3517977099236642,-0.08059923664122137,0
22640,-9.005847424316407,-1.2356891479492187,6.990064477539062,-0.15858778625954195,0.2525610687022901,-0.06533206106870237,0
22665,-9.027395239257812,-1.2428717529296875,6.870354394531249,-0.12041984732824429,0.1762251908396948,-0.0271641221374046,0
22690,-9.048943054199219,-1.2213239379882812,6.966122460937499,-0.06698473282442752,0.0006526717557253647,-0.08059923664122137,0
22715,-9.027395239257812,-1.238083349609375,6.915844226074218,-0.021183206106870245,0.023553435114503918,0.033904580152671726,0
22740,-9.036972045898438,-1.2332949462890626,6.853594982910155,-0.2654580152671756,0.04645419847328247,0.0033702290076335073,0
22765,-8.974722802734375,-1.1806225097656249,6.939786242675781,-0.1509541984732825,0.1914923664122139,-0.004263358778625936,0
22790,-9.036972045898438,-1.1854109130859374,6.920632629394531,0.009351145038167918,0.31362977099236655,0.011003816793893062,0
22815,-9.005847424316407,-1.2739963745117187,6.867960192871093,-0.1509541984732825,0.18385877862595423,0.17894274809160304,0
22840,-9.077673474121093,-1.2021703247070312,6.855989184570312,0.13148854961832057,0.16095801526717568,-0.10350000000000004,0
22865,-8.989088012695312,-1.2213239379882812,6.946968847656249,-0.09751908396946563,0.34416412213740477,-0.11113358778625948,0
22891,-9.048943054199219,-1.1830167114257812,6.932603637695312,-0.11278625954198473,0.49683587786259553,-0.1264007633587786,0
22916,-9.02978944091797,-1.2332949462890626,6.944574645996093,-0.2196564885496184,0.2678282442748092,0.2171106870229007,0
22941,-9.0226068359375,-1.2548427612304687,6.930209436035155,0.12385496183206107,-0.029881679389312854,-0.11113358778625948,0
22966,-9.0226068359375,-1.2548427612304687,6.918238427734375,0.16202290076335873,-0.05278244274809141,0.0033702290076335073,0
22991,-9.044154650878905,-1.26681376953125,6.956545654296875,-0.04408396946564885,0.206759541984733,0.06443893129770983,0
23016,-9.04176044921875,-1.2620253662109375,6.858383386230468,-0.11278625954198473,0.31362977099236655,-0.05769847328244282,0
23041,-8.981905407714844,-1.2021703247070312,6.860777587890625,0.009351145038167918,0.13805725190839713,-0.0271641221374046,0
23066,-9.096827087402342,-1.1901993164062499,6.865565991210937,0.06278625954198469,0.12279007633587802,-0.1569351145038168,0
23091,-9.05373145751953,-1.2356891479492187,6.827258764648437,0.0780534351145038,0.2601946564885498,-0.011896946564885491,0
23116,-9.0609140625,-1.2261123413085937,6.858383386230468,-0.01354961832061069,0.3059961832061069,0.018637404580152617,0
23141,-9.032183642578126,-1.1806225097656249,6.884719604492187,0.06278625954198469,0.21439312977099245,-0.0271641221374046,0
23166,-9.080067675781251,-1.2500543579101562,6.882325402832031,-0.05171755725190841,0.11515648854961835,-0.08059923664122137,0
23191,-9.0609140625,-1.238083349609375,6.963728259277343,0.07041984732824424,-0.05278244274809141,0.011003816793893062,0
23216,-9.096827087402342,-1.2404775512695312,6.872748596191405,-0.12805343511450384,0.321263358778626,-0.11876717557251915,0
23241,-9.04176044921875,-1.1830167114257812,6.920632629394531,-0.1509541984732825,0.1762251908396948,0.018637404580152617,0
23266,-8.979511206054688,-1.1878051147460937,6.844018176269531,-0.18912213740458017,0.2220267175572519,-0.050064885496183265,0
23292,-8.99627061767578,-1.1878051147460937,6.946968847656249,0.016984732824427473,-0.029881679389312854,-0.04243129770992371,0
23317,-9.01542423095703,-1.2093529296874999,6.9780934692382806,0.20019083969465645,0.06935496183206125,-0.04243129770992371,0
23342,-9.044154650878905,-1.24766015625,6.870354394531249,-0.1509541984732825,0.32889694656488566,-0.19510305343511447,0
23367,-9.0226068359375,-1.2883615844726561,6.867960192871093,-0.10515267175572518,0.3365305343511451,-0.034797709923664155,0
23392,-9.034577844238282,-1.2739963745117187,6.920632629394531,0.0017175572519083637,0.10752290076335891,0.011003816793893062,0
23417,-9.051337255859375,-1.1973819213867187,6.937392041015625,0.07041984732824424,0.015919847328244474,-0.09586641221374048,0
23442,-9.032183642578126,-1.1303442749023438,6.822470361328125,-0.07461832061068707,0.31362977099236655,-0.0271641221374046,0
23467,-9.04176044921875,-1.2309007446289062,6.963728259277343,-0.06698473282442752,0.29836259541984744,-0.11876717557251915,0
23492,-9.051337255859375,-1.2093529296874999,6.920632629394531,-0.08988549618320618,0.2601946564885498,-0.05769847328244282,0
23517,-9.025001037597656,-1.257236962890625,6.966122460937499,0.13148854961832057,0.19912595419847334,-0.034797709923664155,0
23542,-9.010635827636719,-1.2069587280273437,6.925421032714843,0.0017175572519083637,0.24492748091603067,-0.1264007633587786,0
23567,-9.046548852539061,-1.2045645263671874,7.021189099121093,0.03225190839694653,0.2754618320610689,0.13314122137404572,0
23592,-9.039366247558593,-1.2309007446289062,7.030765905761718,-0.15858778625954195,0.28309541984732833,-0.06533206106870237,0
23617,-9.096827087402342,-1.257236962890625,6.875142797851562,-0.028816793893129744,0.06935496183206125,0.09497328244274805,0
23642,-9.075279272460937,-1.1901993164062499,6.937392041015625,0.15438931297709924,0.11515648854961835,0.018637404580152617,0
23667,-9.056125659179688,-1.2237181396484376,6.930209436035155,0.13148854961832057,0.3059961832061069,0.018637404580152617,0
23692,-9.032183642578126,-1.2117471313476562,6.966122460937499,0.16202290076335873,0.24492748091603067,-0.050064885496183265,0
23718,-9.039366247558593,-1.171045703125,6.946968847656249,-0.01354961832061069,0.5273702290076336,-0.08059923664122137,0
23743,-8.993876416015624,-1.2428717529296875,6.901479016113281,0.016984732824427473,0.237293893129771,-0.1264007633587786,0
23768,-9.039366247558593,-1.2069587280273437,6.882325402832031,-0.05171755725190841,0.31362977099236655,-0.050064885496183265,0
