t_ms,ax,ay,az,gx,gy,gz,label
0,7.085581933593748,0.6533359619140624,1.6486005737304685,4.0475190839694655,6.847980916030535,-0.23327099236641236,0
25,7.219657226562499,0.9406401611328125,1.6940904052734373,2.391030534351145,5.725843511450382,-0.16456870229007647,0
50,7.145436975097655,0.9119097412109374,1.7060614135742187,0.48263358778625953,4.412866412213741,-0.18746946564885503,0
75,7.138254370117187,1.0459850341796875,1.6701483886718749,-0.5631679389312977,-0.27415648854961816,-0.4241106870229009,0
100,7.071216723632811,0.9837357910156249,1.7707048583984373,-1.5173664122137405,-1.6711030534351146,-1.485179389312977,0
125,7.133465966796874,0.9382459594726562,1.7132440185546873,-1.9906488549618322,1.6189732824427483,-3.4622786259541987,0
150,7.281906469726562,1.06992705078125,1.7467628417968748,-2.509732824427481,4.199125954198474,-6.4317442748091604,0
175,7.629065710449217,1.2877994018554686,1.7994352783203125,-2.708206106870229,3.4205,-9.034797709923664,0
200,7.53808604736328,1.0651386474609374,1.7611280517578123,-0.35706106870229015,-5.297057251908397,-9.645484732824428,0
225,7.444712182617187,0.9310633544921875,1.7156382202148437,-0.0364503816793893,-6.174919847328244,-7.805790076335878,0
250,7.566816467285155,0.9334575561523437,1.555226708984375,-2.3036259541984734,-1.342858778625954,-5.248538167938932,0
275,7.763141003417968,1.1010516723632813,1.4570644409179687,-4.219656488549619,-1.0375152671755723,-3.637851145038168,0
300,7.8517264648437495,1.0818980590820313,1.3804499877929686,-2.8990458015267175,-7.152019083969465,-3.118767175572519,0
325,7.65300772705078,1.1417531005859374,1.6462063720703124,-0.4639312977099237,-6.365759541984733,-2.5920496183206105,0
350,7.53808604736328,1.280616796875,1.4307282226562499,-0.2807251908396947,3.519736641221374,-1.6607519083969464,0
375,7.66019033203125,1.2662515869140625,1.4091804077148435,0.5360687022900763,6.93958396946565,-1.5920496183206105,0
400,7.770323608398436,1.283010998535156,1.3397485595703125,2.490267175572519,5.626606870229008,-2.60731679389313,0
426,7.65300772705078,1.1944255371093748,1.3182007446289061,5.009351145038168,0.3899656488549619,-2.248538167938931,0
451,7.413587561035155,1.1848487304687498,1.4594586425781249,4.96354961832061,1.4968358778625954,0.12550763358778627,0
476,7.4566831909179685,1.3692022583007812,1.5911397338867186,3.009351145038168,6.466301526717558,2.644591603053435,0
501,7.497384619140624,1.4290572998046873,1.564803515625,1.2154580152671755,7.550270992366412,3.6751259541984735,0
526,7.413587561035155,1.3692022583007812,1.555226708984375,1.6505725190839695,1.573171755725191,3.9041335877862595,0
551,7.301060083007811,1.321318225097656,1.6749367919921874,3.4673664122137406,-2.4039274809160305,3.5071870229007636,0
576,7.21247462158203,1.1489357055664062,1.6581773803710935,3.7345419847328247,2.687675572519084,2.8735992366412213,0
601,7.296271679687499,1.1393588989257812,1.6294469604492186,4.009351145038168,3.7945458015267177,2.2094770992366413,0
626,7.413587561035155,1.117811083984375,1.7132440185546873,5.475,-0.5642328244274808,2.0720725190839695,0
651,7.396828149414062,1.1297820922851562,1.8760497314453124,5.551335877862595,-1.457362595419847,1.8888664122137404,0
676,7.363309326171874,1.2423095703125,1.7539454467773437,3.444465648854962,2.603706106870229,1.545354961832061,0
701,7.49977882080078,1.2423095703125,1.7419744384765623,1.0856870229007634,1.8174465648854963,0.7667290076335878,0
726,7.5907584838867175,1.1537241088867187,1.7539454467773437,0.3223282442748091,-1.724538167938931,0.15604198473282438,0
751,7.449500585937499,1.2447037719726561,1.8185888916015625,0.5360687022900763,-1.9917137404580152,0.10260687022900761,0
776,7.3824629394531245,1.0675328491210938,1.6557831787109374,0.41393129770992365,2.0693549618320612,0.5835229007633587,0
801,7.303454284667969,1.0579560424804688,1.6821193969726562,0.8643129770992366,3.657141221374046,0.8735992366412213,0
826,7.274723864746092,1.0651386474609374,1.5600151123046875,1.64293893129771,3.0769885496183207,0.980469465648855,0
851,7.267541259765625,0.9813415893554687,1.6102933471679686,2.711641221374046,1.3746984732824428,0.6369580152671755,0
877,7.202897814941406,0.9933125976562499,1.574380322265625,2.406297709923664,1.8403473282442748,0.11787404580152672,0
902,7.310636889648436,1.1154168823242188,1.555226708984375,1.0322519083969466,2.4434007633587784,-0.43174427480916033,0
927,7.320213696289062,1.10823427734375,1.631841162109375,0.7345419847328244,-2.7321717557251906,-0.08823282442748093,0
952,7.214868823242187,1.0842922607421874,1.6031107421875,0.5208015267175572,-4.457362595419847,0.5606221374045801,0
977,7.313031091308592,1.0148604125976561,1.7036672119140623,0.13912213740458013,-1.3199580152671753,0.5224541984732824,0
1002,7.636248315429687,0.9693705810546874,1.7419744384765623,0.5971374045801526,-1.41156106870229,-0.7294541984732824,0
1027,7.679343945312499,0.9621879760742187,1.844925109863281,1.4673664122137404,-4.632935114503816,-1.6149503816793893,0
1054,7.638642517089843,0.9190923461914061,1.8114062866210936,1.2230916030534351,-4.319958015267176,-0.019530534351145046,0
1079,7.619488903808594,1.0364082275390625,1.7347918334960937,-0.14332061068702295,-1.9688129770992364,1.6827595419847328,0
1104,7.629065710449217,1.0771096557617188,1.7132440185546873,-1.128053435114504,-0.04514885496183196,2.461385496183206,0
1129,7.562028063964843,1.2351269653320311,1.7323976318359373,-0.8761450381679389,-1.8237748091603052,3.0415381679389313,0
1154,7.348944116210936,1.1944255371093748,1.7922526733398436,-0.6853053435114503,0.7411106870229008,3.0033702290076336,0
1180,7.370491931152343,1.271039990234375,1.7635222534179686,-0.7540076335877862,5.771645038167939,1.7667290076335878,0
1205,7.46865419921875,1.1992139404296873,1.6557831787109374,0.8490458015267175,2.1991259541984736,-0.3096068702290077,0
1230,7.325002099609374,1.1130226806640624,1.5624093139648436,2.1238549618320612,-1.0909503816793893,-1.6073167938931299,0
1255,7.253176049804687,1.1321762939453124,1.5815629272460936,0.7879770992366413,-0.9382786259541982,-1.317240458015267,0
1280,7.1957152099609365,0.9502169677734374,1.5528325073242186,-2.173854961832061,-0.05278244274809141,-0.7599885496183206,0
1305,7.281906469726562,0.9645821777343749,1.385238391113281,-3.6853053435114504,-0.48789694656488547,-1.4088435114503817,0
1330,7.351338317871092,1.1465415039062499,1.3612963745117186,-1.6547709923664122,-5.9001106870229005,-2.5233473282442747,0
1355,7.181349999999999,1.0244372192382811,1.35411376953125,0.1849236641221374,-6.923011450381679,-2.3783091603053435,0
1380,7.193321008300781,1.0004952026367187,1.3301717529296875,0.742175572519084,-2.029881679389313,-1.5920496183206105,0
1405,7.334578906249999,1.0675328491210938,1.4067862060546874,0.7040076335877863,3.160958015267176,-1.2485381679389311,0
1430,7.46865419921875,1.1537241088867187,1.3684789794921874,1.826145038167939,2.3823320610687024,-1.6073167938931299,0
1455,7.5309034423828125,1.2566747802734375,1.643812170410156,2.490267175572519,0.7411106870229008,-1.8363244274809158,0
1480,7.4925962158203125,0.9837357910156249,1.605504943847656,1.3833969465648854,1.0006526717557254,-1.034797709923664,0
1505,7.562028063964843,1.1273878906249999,1.7754932617187498,-1.0822519083969464,4.138057251908397,-0.7523549618320612,0
1530,7.727227978515624,1.2877994018554686,1.7060614135742187,-2.502099236641221,1.9319503816793895,-0.9050267175572518,0
1555,7.624277307128906,1.330895031738281,1.7970410766601561,-1.5555343511450381,-3.3123244274809163,-1.0729656488549617,0
1580,7.588364282226562,1.1992139404296873,1.7300034301757812,-1.1891221374045804,-3.8695763358778623,-1.3477748091603052,0
1606,7.50696142578125,1.2686457885742186,1.7012730102539062,-1.35706106870229,-0.1367519083969464,-1.6378511450381676,0
1631,7.521326635742187,1.1848487304687498,1.6677541870117185,-1.2043893129770993,2.2907290076335878,-1.6760190839694658,0
1656,7.480625207519531,1.2207617553710937,1.615081750488281,0.08568702290076335,-1.4726297709923664,-0.7294541984732824,0
1681,7.317819494628906,1.1441473022460937,1.6078991455078124,0.7116412213740457,-1.0833167938931298,0.8812328244274809,0
1706,7.27711806640625,1.0627444458007813,1.62226435546875,0.9330152671755725,2.7640114503816795,1.4308511450381678,0
1731,7.2699354614257805,1.1202052856445313,1.58395712890625,0.8795801526717557,3.702942748091603,0.9270343511450382,0
1756,7.360915124511718,1.1680893188476562,1.5432557006835936,0.8872137404580153,0.34416412213740477,-0.5920496183206106,0
1781,7.365703527832031,1.1130226806640624,1.5887455322265625,1.2841603053435113,-3.91537786259542,-1.821057251908397,0
1806,7.226839831542969,0.9741589843749999,1.5432557006835936,1.3528625954198472,-4.869576335877863,-1.9660954198473282,0
1831,7.272329663085936,0.9526111694335937,1.4522760375976562,0.03225190839694653,-1.5947671755725188,-1.5615152671755723,0
1856,7.4782310058593735,1.0914748657226563,1.4905832641601562,-0.5784351145038168,-0.4039274809160305,-2.1798358778625953,0
1881,7.4925962158203125,0.9981010009765624,1.4666412475585937,-0.3646946564885496,-4.8924770992366415,-2.1035,0
1906,7.372886132812499,1.060350244140625,1.5241020874023437,-1.738740458015267,-3.5031641221374046,-0.4241106870229009,0
1931,7.502173022460936,1.2040023437499998,1.4881890624999998,-3.5479007633587787,0.13042366412213746,1.094973282442748,0
1956,7.578787475585936,1.340471838378906,1.4666412475585937,-2.807442748091603,-0.21308778625954194,1.545354961832061,0
1981,7.475836804199218,1.26146318359375,1.3732673828125,-1.295992366412214,-1.6482022900763358,1.4995534351145037,0
2006,7.459077392578124,1.2590689819335936,1.5145252807617187,-1.2196564885496182,2.802179389312977,1.4308511450381678,0
2032,7.61470050048828,1.347654443359375,1.5097368774414062,-0.975381679389313,5.6495076335877865,-0.37830916030534356,0
2057,7.825390246582031,1.3428660400390624,1.4666412475585937,0.658206106870229,1.405232824427481,-2.172202290076336,0
2082,7.676949743652343,1.2183675537109373,1.5671977172851561,1.7192748091603054,-1.6176679389312976,-1.821057251908397,0
2107,7.533297644042968,1.2638573852539061,1.5145252807617187,0.7116412213740457,0.2601946564885498,0.4842862595419847,0
2132,7.435135375976562,1.2566747802734375,1.5169194824218748,-0.3799618320610687,1.9319503816793895,2.4690190839694655,0
2157,7.411193359374999,1.2973762084960936,1.5241020874023437,0.24599236641221373,-0.9917137404580152,3.110240458015267,0
2182,7.298665881347655,1.1034458740234374,1.4594586425781249,1.2001908396946566,-2.678736641221374,2.415583969465649,0
2207,7.214868823242187,1.0938690673828124,1.5360730957031248,1.4444656488549619,-2.1825534351145035,1.675125954198473,0
2232,7.214868823242187,1.1609067138671874,1.5073426757812498,1.0093511450381678,0.9701183206106871,0.9652022900763358,0
2257,7.341761511230469,1.0483792358398436,1.5456499023437498,1.0017175572519084,1.4510343511450383,-0.553881679389313,0
2282,7.50696142578125,1.0148604125976561,1.5336788940429686,0.9253816793893129,0.237293893129771,-2.248538167938931,0
2307,7.511749829101562,1.0459850341796875,1.5528325073242186,0.7650763358778625,-1.6405687022900763,-2.7294541984732823,0
2332,7.504567224121092,1.0364082275390625,1.5887455322265625,0.16202290076335873,-1.0375152671755723,-2.2103702290076335,0
2357,7.535691845703124,1.1225994873046874,1.6916962036132812,-0.8227099236641221,2.1991259541984736,-0.6836526717557253,0
2382,7.7032859619140615,1.2063965454101562,1.662965783691406,-2.0364503816793893,4.25256106870229,0.37741603053435113,0
2407,7.696103356933594,1.1968197387695312,1.5600151123046875,-1.891412213740458,-0.1367519083969464,1.1865763358778625,0
2433,7.502173022460936,1.1034458740234374,1.6462063720703124,-2.2654580152671753,-0.625301526717557,1.72856106870229,0
2458,7.404010754394531,1.1130226806640624,1.586351330566406,-3.1280534351145035,1.275461832061069,2.05680534351145,0
2483,7.3441557128906245,1.1776661254882812,1.4379108276367187,-3.1585877862595417,0.8556145038167939,1.6064236641221372,0
2508,7.293877478027343,1.0651386474609374,1.2631341064453123,-2.8303435114503817,-0.9230114503816793,1.0415381679389313,0
2533,7.123889160156248,1.0004952026367187,1.306229736328125,-2.441030534351145,-0.5642328244274808,-0.5004465648854962,0
2558,7.150225378417969,1.0866864624023438,1.2296152832031249,-2.2959923664122135,0.9624847328244276,-2.5615152671755723,0
2583,7.329790502929687,1.1489357055664062,1.3301717529296875,-0.9677480916030535,-0.06041603053435107,-4.294339694656489,0
2608,7.375280334472655,1.2159733520507812,1.2679225097656248,0.17729007633587784,-1.129118320610687,-4.149301526717558,0
2633,7.451894787597655,1.1944255371093748,1.2870761230468748,0.9101145038167939,0.5502709923664123,-2.851591603053435,0
2658,7.471048400878906,1.2351269653320311,1.375661584472656,2.223091603053435,2.25256106870229,-1.752354961832061,0
2683,7.404010754394531,1.311741418457031,1.4283340209960937,3.7345419847328247,3.4281335877862595,-1.0805992366412216,0
2708,7.466259997558592,1.2183675537109373,1.5193136840820312,5.2765267175572514,2.8556145038167937,-1.1035,0
2733,7.4925962158203125,1.2255501586914062,1.5719861206054686,5.2688931297709924,3.9090496183206107,-1.3554083969465647,0
2758,7.581181677246094,1.2327327636718748,1.64141796875,5.100954198473282,3.702942748091603,-2.050064885496183,0
2783,7.497384619140624,1.1728777221679687,1.7443686401367187,4.864312977099236,1.4434007633587786,-1.5767824427480917,0
2809,7.463865795898436,1.1585125122070312,1.7515512451171873,3.543702290076336,2.122790076335878,-0.33250763358778623,0
2834,7.511749829101562,1.0292256225585936,1.6102933471679686,2.207824427480916,2.939583969465649,0.7285610687022901,0
2859,7.53808604736328,1.1465415039062499,1.8185888916015625,1.1772900763358778,0.4815687022900764,1.5377213740458013,0
2884,7.394433947753906,1.1417531005859374,1.7228208251953123,0.34522900763358777,-1.2588893129770993,1.4766526717557251,0
2909,7.411193359374999,1.1034458740234374,1.6174759521484374,-0.5097328244274809,-1.1062175572519082,0.9346679389312976,0
2934,7.411193359374999,1.2590689819335936,1.6916962036132812,-0.20438931297709928,-1.1596526717557252,0.17894274809160304,0
2959,7.351338317871092,1.2662515869140625,1.7012730102539062,0.03988549618320608,-1.4955305343511451,0.4766526717557252,0
2984,7.370491931152343,1.2255501586914062,1.6940904052734373,-0.9830152671755726,0.7411106870229008,0.5071870229007633,0
3009,7.396828149414062,1.3739906616210937,1.5360730957031248,-1.242557251908397,-0.9382786259541982,0.4766526717557252,0
3034,7.4183759643554685,1.251886376953125,1.5288904907226561,-1.1967557251908398,-4.739805343511451,0.1865763358778626,0
3059,7.2316282348632805,1.271039990234375,1.5073426757812498,-1.8685114503816793,-2.0222480916030534,-0.920293893129771,0
3084,7.348944116210936,1.1513299072265624,1.3732673828125,-1.4791984732824428,0.18385877862595423,-2.538614503816794,0
3109,7.377674536132811,1.1010516723632813,1.3780557861328124,-1.0211832061068704,1.7411106870229007,-3.637851145038168,0
3134,7.358520922851562,1.2949820068359374,1.4403050292968749,-0.021183206106870245,-0.18255343511450373,-3.851591603053435,0
3159,7.437529577636718,1.2231559570312498,1.4546702392578124,-0.32652671755725193,2.0311870229007636,-2.966095419847328,0
3185,7.585970080566406,1.3620196533203124,1.5288904907226561,-0.0364503816793893,3.9319503816793895,-1.93556106870229,0
3210,7.451894787597655,1.3356834350585935,1.5217078857421873,1.4062977099236642,1.5426374045801527,-1.0805992366412216,0
3235,7.42316436767578,1.26146318359375,1.593533935546875,2.162022900763359,3.7182099236641224,-0.44701145038167944,0
3260,7.487807812499999,1.2662515869140625,1.6821193969726562,1.1391221374045801,8.901416030534351,-0.5767824427480915,0
3285,7.708074365234375,1.3452602416992185,1.6964846069335937,0.9330152671755725,5.970118320610688,-1.4317442748091604,0
3310,7.511749829101562,1.3452602416992185,1.6701483886718749,1.0551526717557251,0.5197366412213742,-1.1798358778625953,0
3335,7.394433947753906,1.4099036865234373,1.8401367065429686,-0.776908396946565,2.8632480916030536,0.1865763358778626,0
3360,7.4183759643554685,1.309347216796875,1.7826758666992186,-2.0669847328244275,5.451034351145038,1.2171106870229007,0
3385,7.406404956054687,1.3763848632812499,1.7922526733398436,-1.7158396946564887,3.725843511450382,0.8430648854961832,0
3410,7.351338317871092,1.3955384765624999,1.6749367919921874,-1.7158396946564887,2.222026717557252,0.5987900763358778,0
3435,7.284300671386718,1.3332892333984374,1.6749367919921874,-1.3952290076335876,1.023553435114504,0.22474427480916026,0
3460,7.164590588378906,1.2877994018554686,1.650994775390625,-0.5555343511450382,1.6418740458015268,-0.6149503816793894,0
3485,7.219657226562499,1.2949820068359374,1.7300034301757812,-0.5326335877862595,4.527370229007634,-1.0958664122137405,0
3510,7.262752856445311,1.2949820068359374,1.7898584716796873,-0.6166030534351145,3.389965648854962,-1.370675572519084,0
3535,7.248387646484374,1.2207617553710937,1.7539454467773437,-0.9601145038167939,0.9166832061068704,-1.3248740458015265,0
3561,7.298665881347655,1.2351269653320311,1.7635222534179686,-2.105152671755725,2.5121030534351148,-1.6683854961832059,0
3586,7.4399237792968735,1.2016081420898437,1.7323976318359373,-2.7769083969465647,2.7945458015267177,-2.2103702290076335,0
3611,7.53808604736328,1.35723125,1.7012730102539062,-2.4181297709923664,0.5502709923664123,-2.9279274809160305,0
3636,7.554845458984373,1.3931442749023437,1.7347918334960937,-2.387595419847328,1.5655381679389313,-2.920293893129771,0
3661,7.612306298828124,1.3620196533203124,1.854501916503906,-1.7311068702290076,1.573171755725191,-1.6912862595419846,0
3686,7.605123693847655,1.4146920898437498,1.8209830932617186,-1.2349236641221375,1.9930190839694657,0.545354961832061,0
3711,7.564422265624999,1.3787790649414062,1.9239337646484374,-0.9982824427480915,3.466301526717557,2.919400763358779,0
3736,7.442317980957031,1.309347216796875,1.9742119995117184,-1.3112595419847328,4.641874045801527,4.072072519083969,0
3761,7.46147159423828,1.2782225952148436,2.0005482177734377,-1.4333969465648857,2.8785152671755725,4.438484732824428,0
3786,7.4183759643554685,1.2494921752929686,1.9861830078124998,-3.005916030534351,2.8556145038167937,4.041538167938931,0
3811,7.358520922851562,1.2016081420898437,2.0484322509765627,-3.3265267175572517,-0.029881679389312854,3.3087137404580154,0
3836,7.329790502929687,1.1680893188476562,2.069980065917969,-4.19675572519084,-1.4726297709923664,2.0415381679389313,0
3861,7.245993444824218,1.1561183105468749,1.8856265380859374,-5.463931297709924,-1.724538167938931,1.4995534351145037,0
3886,7.188532604980469,1.1249936889648438,1.9622409912109375,-6.7234732824427486,-2.4878969465648852,1.743828244274809,0
3912,7.20050361328125,1.1800603271484373,1.85210771484375,-7.227290076335878,-2.2665229007633587,1.4461183206106871,0
3937,7.080793530273437,1.1465415039062499,1.8664729248046874,-6.601335877862596,-3.006980916030534,1.0339045801526718,0
3962,7.087976135253906,1.2686457885742186,1.7683106567382811,-5.463931297709924,-1.4955305343511451,0.06443893129770983,0
3987,7.169378991699218,1.271039990234375,1.6988788085937498,-4.013549618320611,0.21439312977099245,-1.370675572519084,0
4012,7.152619580078125,1.2949820068359374,1.7778874633789061,-2.0822519083969464,-1.0451488549618322,-2.866858778625954,0
4037,7.123889160156248,1.117811083984375,1.7204266235351562,-1.2196564885496182,-1.342858778625954,-3.2714389312977095,0
4062,7.040092102050781,1.0459850341796875,1.7635222534179686,-1.4028625954198475,0.9624847328244276,-3.0729656488549617,0
4087,7.31542529296875,1.1393588989257812,1.6940904052734373,-1.7082061068702288,4.008286259541984,-4.538614503816794,0
4112,7.497384619140624,1.2087907470703123,1.6797251953124999,-0.35706106870229015,0.8174465648854963,-6.592049618320611,0
4137,7.5692106689453125,1.2375211669921875,1.806617883300781,0.8261450381679389,-2.709270992366412,-7.240904580152671,0
4162,7.557239660644531,1.1537241088867187,1.81380048828125,1.1009541984732825,-1.7321717557251906,-5.172202290076336,0
4187,7.679343945312499,1.3452602416992185,1.8784439331054685,1.162022900763359,-1.6482022900763358,-2.569148854961832,0
4212,7.57639327392578,1.292587805175781,1.8856265380859374,0.7879770992366413,-1.2665229007633587,-0.18746946564885503,0
4237,7.53808604736328,1.330895031738281,1.9143569580078124,0.5055343511450382,0.08462213740458036,0.7819961832061069,0
4263,7.325002099609374,1.2566747802734375,1.7132440185546873,1.4062977099236642,-3.2817900763358776,1.7590954198473283,0
4288,7.071216723632811,1.1776661254882812,1.7707048583984373,1.1467557251908396,-1.5871335877862593,1.8583320610687024,0
4313,7.133465966796874,1.2877994018554686,1.6916962036132812,1.30706106870229,1.7411106870229007,0.2552786259541985,0
4338,7.193321008300781,1.35723125,1.6797251953124999,2.8643129770992366,1.6724083969465648,-2.630217557251908,0
4363,7.226839831542969,1.2758283935546875,1.6893020019531249,4.001717557251908,-0.5794999999999999,-4.553881679389313,0
4388,7.166984790039062,1.2758283935546875,1.6773309936523437,3.1849236641221377,0.6266068702290077,-4.927927480916031,0
4413,7.557239660644531,1.3692022583007812,1.7826758666992186,2.3146946564885496,4.458667938931297,-5.782889312977099,0
4438,7.758352600097655,1.79776435546875,1.8473193115234374,3.9635496183206107,3.153324427480916,-8.011896946564885,0
4463,7.643430920410155,1.752274523925781,1.825771496582031,6.322328244274809,4.153324427480916,-8.027164122137405,0
4488,7.4566831909179685,1.733120910644531,1.9646351928710934,9.513167938931298,-0.846675572519084,-4.225637404580153,0
4513,7.107129748535155,1.4362399047851562,1.880838134765625,8.841412213740458,3.222026717557252,1.9499351145038166,0
4538,6.963477648925781,1.1704835205078123,1.8377425048828124,7.528435114503816,4.466301526717557,6.8965,0
4563,6.774335717773437,1.2231559570312498,1.7802816650390623,5.253625954198473,6.313629770992366,8.293446564885496,0
4588,6.805460339355467,1.273434191894531,1.81380048828125,2.6047709923664124,6.298362595419848,5.270545801526717,0
4613,6.9491124389648435,1.3692022583007812,1.8401367065429686,0.2612595419847328,1.657141221374046,-0.2256374045801527,0
4639,7.054457312011718,1.4553935180664062,1.8209830932617186,-2.0364503816793893,-2.793240458015267,-6.027164122137405,0
4664,7.365703527832031,1.5631325927734374,1.873655529785156,-3.334160305343511,-6.152019083969465,-11.653118320610687,0
4689,7.741593188476561,1.7211499023437498,1.844925109863281,-2.8150763358778623,-6.602400763358778,-15.798156488549619,0
4714,8.024108984374998,1.6900252807617187,1.7371860351562498,0.20019083969465645,-9.006980916030534,-15.94319465648855,0
4739,7.935523522949217,1.3811732666015624,1.7467628417968748,3.6353053435114506,-8.052782442748091,-10.843958015267177,0
4764,7.684132348632812,1.3069530151367186,1.8856265380859374,6.925381679389313,-4.625301526717557,-3.43174427480916,0
4789,7.631459912109373,1.4506051147460937,1.7395802368164062,6.497900763358778,8.557904580152671,2.2323778625954196,0
4814,7.66019033203125,1.5487673828125,1.816194689941406,6.284160305343511,9.298362595419848,5.499553435114503,0
4839,7.46147159423828,1.6517180541992187,1.7347918334960937,6.436832061068702,1.5350038167938933,6.23237786259542,0
4864,7.219657226562499,1.532007971191406,1.911962756347656,4.574236641221374,-1.0909503816793893,5.850698473282442,0
4889,7.183744201660155,1.5272195678710936,1.7874642700195311,2.009351145038168,0.5502709923664123,3.7438282442748094,0
4914,7.260358654785155,1.500883349609375,1.8018294799804686,1.3910305343511449,-2.9688129770992364,0.812530534351145,0
4939,7.1214949584960925,1.5080659545898436,1.8090120849609375,1.6734732824427483,-7.220721374045802,-0.6989198473282444,0
4964,7.087976135253906,1.330895031738281,1.6916962036132812,1.871946564885496,-5.037515267175573,-1.0195305343511452,0
4989,7.20050361328125,1.4051152832031248,1.7228208251953123,0.9177480916030534,1.2907290076335878,-1.4546450381679388,0
5015,7.5524512573242175,1.6924194824218748,1.7707048583984373,0.2536259541984732,2.4586679389312978,-2.27143893129771,0
5040,7.641036718749999,1.8839556152343748,1.7084556152343748,1.30706106870229,-1.3581259541984734,-3.0118969465648853,0
5065,7.413587561035155,1.9462048583984373,1.7826758666992186,2.6963740458015266,-4.106217557251908,-2.0424312977099235,0
5090,7.305848486328125,1.8815614135742187,1.7707048583984373,4.398664122137404,-1.1978206106870228,0.1713091603053435,0
5115,7.214868823242187,1.6948136840820311,1.816194689941406,6.681106870229007,1.6724083969465648,1.415583969465649,0
5140,7.2316282348632805,1.7019962890624998,1.864078723144531,7.765076335877862,2.7869122137404583,1.6903931297709924,0
5165,7.226839831542969,1.6948136840820311,1.8592903198242186,7.100954198473282,3.275461832061069,1.4766526717557251,0
5190,7.169378991699218,1.6804484741210937,1.7802816650390623,6.765076335877862,1.2525610687022901,0.05680534351145039,0
5216,7.202897814941406,1.7139672973632811,1.7970410766601561,4.841412213740457,0.6876755725190841,-2.1645687022900764,0
5241,7.320213696289062,1.7546687255859374,1.7515512451171873,3.7192748091603054,-1.7550725190839693,-3.4546450381679388,0
5266,7.293877478027343,1.7666397338867186,1.7443686401367187,2.375763358778626,-4.159652671755724,-4.011896946564886,0
5291,7.28908907470703,1.6852368774414062,1.612687548828125,1.162022900763359,-4.739805343511451,-5.034797709923665,0
5316,7.255570251464843,1.6924194824218748,1.5097368774414062,1.1009541984732825,-6.037515267175573,-5.5233473282442755,0
5341,7.210080419921874,1.6876310791015623,1.4426992309570312,0.9330152671755725,-4.426828244274809,-5.042431297709924,0
5366,7.377674536132811,1.6397470458984373,1.3589021728515625,2.13912213740458,-4.884843511450381,-5.301973282442749,0
5392,7.336973107910155,1.752274523925781,1.4522760375976562,3.9864503816793895,-6.136751908396947,-4.179835877862596,0
5417,7.459077392578124,1.7259383056640625,1.4786122558593748,3.6505725190839695,-2.396293893129771,-3.080599236641221,0
5442,7.528509240722655,1.8408599853515624,1.5384672973632811,4.093320610687023,-1.0222480916030534,-2.6225839694656488,0
5467,7.533297644042968,1.8695904052734373,1.423545617675781,5.360496183206107,0.16859160305343512,-2.59968320610687,0
5492,7.49977882080078,1.819312170410156,1.6294469604492186,8.421564885496183,-2.1138511450381676,-1.538614503816794,0
5517,7.368097729492187,1.8743788085937498,1.8401367065429686,9.291793893129771,2.7334770992366413,0.8354312977099236,0
5542,7.573999072265624,1.790581750488281,1.7467628417968748,8.475,6.90904961832061,2.1026068702290077,0
5567,7.593152685546873,1.7570629272460936,1.6725425903320312,6.902480916030534,3.771645038167939,1.4461183206106871,0
5592,7.415981762695311,1.7235441040039061,1.643812170410156,3.162022900763359,0.3059961832061069,0.713293893129771,0
5617,7.348944116210936,1.8432541870117185,1.4762180541992187,-0.3341603053435115,-0.625301526717557,-0.9737290076335877,0
5642,7.401616552734374,1.9150802368164062,1.3900267944335936,-0.8990458015267176,-2.8161412213740458,-2.9279274809160305,0
5667,7.272329663085936,1.9055034301757812,1.4905832641601562,0.8566793893129772,-6.701637404580152,-3.637851145038168,0
5692,7.181349999999999,1.9270512451171873,1.5600151123046875,1.2612595419847328,-2.0985839694656487,-1.653118320610687,0
5718,7.375280334472655,2.0252135131835938,1.643812170410156,1.3528625954198472,4.199125954198474,1.0415381679389313,0
5743,7.274723864746092,2.077885949707031,1.605504943847656,2.253625954198473,6.0998893129770995,2.72856106870229,0
5768,7.248387646484374,2.087462756347656,1.6725425903320312,2.085687022900763,6.8785152671755725,2.7896297709923665,0
5793,7.2316282348632805,2.087462756347656,1.6701483886718749,1.1696564885496183,8.08462213740458,1.2705458015267175,0
5818,7.243599243164062,2.0826743530273437,1.7252150268554687,1.2307251908396948,5.687675572519083,-1.584416030534351,0
5843,7.284300671386718,2.010848303222656,1.7276092285156248,1.6047709923664124,-0.8848435114503816,-3.660751908396947,0
5868,7.325002099609374,2.0228193115234374,1.7754932617187498,0.016984732824427473,-2.014614503816794,-4.363041984732825,0
5893,7.341761511230469,1.9845120849609375,1.7252150268554687,-1.4791984732824428,-1.0909503816793893,-3.996629770992366,0
5918,7.380068737792969,2.0084541015625,1.6749367919921874,-1.4181297709923664,-1.724538167938931,-3.530980916030534,0
5943,7.363309326171874,1.8863498168945312,1.5911397338867186,-1.4257633587786258,-1.0222480916030534,-2.6378511450381676,0
5968,7.471048400878906,1.9438106567382811,1.4498818359374999,-1.1356870229007634,-0.7169045801526717,-3.324874045801527,0
5993,7.370491931152343,1.8695904052734373,1.4618528442382812,0.2612595419847328,-5.991713740458016,-2.821057251908397,0
6018,7.018544287109374,1.8480425903320312,1.4522760375976562,-1.2501908396946564,-2.0985839694656487,-0.6454847328244274,0
6043,7.164590588378906,1.8408599853515624,1.4067862060546874,-3.4639312977099235,4.565538167938931,0.33924809160305336,0
6068,7.138254370117187,1.8815614135742187,1.2583457031249998,-2.2654580152671753,2.1456908396946566,-1.0500648854961834,0
6094,6.941929833984374,1.8025527587890624,1.2320094848632812,-0.9066793893129771,0.32889694656488566,-3.752354961832061,0
6119,6.9515066406249995,1.9222628417968748,1.33496015625,-0.8761450381679389,3.3823320610687024,-6.034797709923665,0
6144,7.207686218261718,1.9869062866210936,1.4331224243164062,-1.4028625954198475,3.7334770992366413,-7.737087786259542,0
6169,7.329790502929687,2.0611265380859374,1.3900267944335936,-0.5326335877862595,0.5197366412213742,-7.9737290076335885,0
6194,7.408799157714843,2.267027880859375,1.5456499023437498,0.3223282442748091,2.061721374045802,-6.912660305343512,0
6219,7.4782310058593735,2.228720654296875,1.564803515625,1.7956106870229007,5.130423664122137,-5.210370229007634,0
6245,7.600335290527343,2.350824938964844,1.6390237670898435,3.497900763358779,6.893782442748092,-3.859225190839694,0
6270,7.607517895507812,2.2766046875,1.6797251953124999,4.772709923664122,4.977751908396947,-3.1569351145038165,0
6295,7.396828149414062,2.2598452758789063,1.7659164550781248,4.024618320610687,3.5273702290076336,-1.3554083969465647,0
6320,7.241205041503906,2.06591494140625,1.7371860351562498,2.520801526717557,4.565538167938931,0.5606221374045801,0
6345,7.080793530273437,2.039578723144531,1.8185888916015625,0.9559160305343511,6.176225190839695,0.5835229007633587,0
6370,7.05924571533203,2.001271496582031,1.7252150268554687,0.45973282442748087,3.2830954198473283,-0.5996832061068703,0
6395,6.946718237304688,1.979723681640625,1.804223681640625,-0.18148854961832062,1.6266068702290077,-2.5080801526717558,0
6420,7.0616399169921875,2.001271496582031,1.6964846069335937,-1.8074427480916029,4.09225572519084,-4.958461832061069,0
6445,7.267541259765625,2.245480065917969,1.7611280517578123,-1.3112595419847328,3.92431679389313,-7.004263358778626,0
6470,7.578787475585936,2.4609582153320315,1.8664729248046874,0.29942748091603055,2.351797709923664,-8.187469465648855,0
6495,7.600335290527343,2.446593005371094,1.8784439331054685,1.2001908396946566,-1.3352251908396946,-6.469912213740458,0
6520,7.581181677246094,2.346036535644531,1.854501916503906,0.16202290076335873,-1.060416030534351,-3.8363244274809163,0
6545,7.595546887207031,2.3771611572265625,1.9694235961914062,-2.02881679389313,5.916683206106871,-2.0729656488549617,0
6571,7.641036718749999,2.4801118286132815,2.0173076293945313,-1.9219465648854963,3.825080152671756,-0.0271641221374046,0
6596,7.3441557128906245,2.293364099121094,1.8904149414062499,-1.341793893129771,-0.37339312977099226,2.1560419847328243,0
6621,7.1574079833984365,2.1616830078125,1.9143569580078124,-2.242557251908397,3.473935114503817,3.2934465648854965,0
6646,7.181349999999999,2.075491748046875,1.871261328125,-2.6547709923664122,5.046454198473283,2.9728358778625954,0
6671,7.226839831542969,2.0994337646484373,1.9742119995117184,-1.9982824427480916,2.687675572519084,1.2858129770992366,0
6696,7.31542529296875,2.274210485839844,2.1011046875,-2.1356870229007634,3.222026717557252,-0.3096068702290077,0
6721,7.317819494628906,2.3388539306640626,2.060403259277344,-2.570801526717557,0.7869122137404582,-0.11113358778625948,0
6746,7.004179077148437,2.2215380493164063,2.0173076293945313,-4.105152671755725,-4.052782442748091,3.3621488549618324,0
6771,6.776729919433593,1.991694689941406,2.1011046875,-7.578435114503817,1.0693549618320612,6.743828244274809,0
6796,6.870103784179686,1.9533874633789061,1.9095685546874999,-8.471564885496184,4.443400763358779,7.064438931297709,0
6821,6.965871850585937,1.998877294921875,2.0029424194335936,-6.914312977099237,2.9014160305343513,5.110240458015267,0
6846,6.939535632324218,2.21914384765625,2.0316728393554686,-6.570801526717558,2.0693549618320612,3.39268320610687,0
6871,6.917987817382811,2.1616830078125,1.9574525878906248,-7.914312977099238,1.0464541984732825,2.8201641221374047,0
6896,7.044880505371093,2.2766046875,2.0029424194335936,-10.578435114503817,1.58843893129771,1.5987900763358778,0
6921,7.068822521972655,2.264633679199219,1.7276092285156248,-11.227290076335878,-2.464996183206107,-0.9508282442748092,0
6947,6.941929833984374,2.049155529785156,1.574380322265625,-8.960114503816794,-9.068049618320611,-2.9966297709923664,0
6972,6.86770958251953,2.094645361328125,1.4403050292968749,-6.9524809160305345,-6.220721374045802,-3.019530534351145,0
6997,6.968266052246093,2.228720654296875,1.576774523925781,-3.540267175572519,0.2220267175572519,-2.569148854961832,0
7022,7.35373251953125,2.41067998046875,1.5264962890624998,2.1696564885496183,4.893782442748092,-2.462278625954198,0
7047,7.408799157714843,2.5088422485351565,1.6270527587890624,6.925381679389313,5.725843511450382,-1.8821259541984734,0
7072,7.255570251464843,2.379555358886719,1.7132440185546873,7.894847328244275,10.145690839694657,-1.0653320610687023,0
7097,7.257964453124999,2.3580075439453125,1.8688671264648435,6.360496183206107,10.40523282442748,0.2552786259541985,0
7122,7.339367309570311,2.2430858642578126,1.9909714111328125,4.108587786259542,9.11515648854962,0.7819961832061069,0
7147,7.3441557128906245,2.2406916625976563,1.861684521484375,1.8337786259541984,6.916683206106871,0.14077480916030527,0
7172,7.248387646484374,2.3149119140625,1.816194689941406,0.558969465648855,3.702942748091603,-1.5004465648854963,0
7197,7.279512268066406,2.3484307373046875,1.8473193115234374,1.1849236641221372,-0.7856068702290075,-3.2714389312977095,0
7222,7.380068737792969,2.393920568847656,1.8401367065429686,3.2001908396946566,-9.602400763358778,-4.248538167938932,0
7247,7.171773193359374,2.190413427734375,1.9598467895507812,5.787977099236641,-16.2207213740458,-3.4546450381679388,0
7272,6.961083447265625,2.0994337646484373,1.9933656127929684,5.742175572519083,-14.297057251908397,-1.4012099236641222,0
7298,6.9491124389648435,2.037184521484375,2.0460380493164063,2.8414122137404583,-1.2207213740458016,-0.9050267175572518,0
7323,7.166984790039062,1.9749352783203125,2.1537771240234376,-1.288358778625954,13.11515648854962,-1.4012099236641222,0
7348,7.389645544433592,2.0850685546875,2.2160263671875002,-4.387595419847329,18.11515648854962,-2.3325076335877863,0
7373,7.746381591796875,2.235903259277344,2.232785778808594,-6.540267175572519,13.138057251908398,-3.218003816793893,0
7398,7.607517895507812,2.2718162841796876,2.3860146850585937,-7.387595419847329,3.061721374045802,-3.3630419847328246,0
7423,7.279512268066406,1.982117883300781,2.275881408691406,-7.899045801526718,-2.8543091603053434,-1.4622786259541982,0
7448,6.922776220703125,2.0347903198242188,2.3812262817382814,-9.899045801526718,1.122790076335878,2.2705458015267177,0
7473,6.968266052246093,2.010848303222656,2.15856552734375,-14.479198473282443,16.20675954198473,2.9270343511450383,0
7498,7.001784875488281,2.058732336425781,2.1322293090820312,-14.71583969465649,16.817446564885497,1.2705458015267175,0
7523,6.862921179199218,2.0635207397460937,2.129835107421875,-12.433396946564885,9.916683206106871,-1.5462480916030534,0
7548,6.827008154296874,2.10422216796875,2.3046118286132815,-10.837977099236642,9.817446564885497,-4.5309809160305345,0
7573,6.94432403564453,2.1497119995117187,2.3931972900390623,-10.486832061068702,11.122790076335878,-6.248538167938932,0
7598,7.198109411621092,2.2766046875,2.5560030029296876,-9.616603053435115,7.183858778625954,-6.218003816793893,0
7623,7.035303698730467,2.1353467895507814,2.474600146484375,-9.85324427480916,3.893782442748092,-4.500446564885497,0
7648,6.915593615722655,1.982117883300781,2.3524958618164065,-11.822709923664123,4.4281335877862595,-2.202736641221374,0
7674,7.274723864746092,2.1832308227539063,2.38840888671875,-13.616603053435115,7.603706106870229,-2.0118969465648853,0
7699,7.69131495361328,2.365190148925781,2.493753759765625,-12.35706106870229,5.8861488549618315,-3.5004465648854963,0
7724,7.593152685546873,2.3532191406250003,2.5536088012695313,-7.265458015267176,-6.266522900763359,-3.233270992366412,0
7749,7.23881083984375,2.226326452636719,2.692472497558594,-3.257824427480916,-12.846675572519084,-0.34777480916030534,0
7774,7.0257268920898435,1.9366280517578123,2.69486669921875,-3.754007633587786,-2.5489656488549617,1.5606221374045801,0
7799,7.401616552734374,2.1353467895507814,2.7379623291015625,-5.876145038167939,11.11515648854962,0.7285610687022901,0
7824,7.748775793457031,2.1880192260742186,2.773875354003906,-5.868511450381679,13.733477099236643,0.8430648854961832,0
7849,7.5524512573242175,2.1473177978515627,2.77148115234375,-4.03645038167939,2.5655381679389313,4.812530534351145,0
7874,7.0831877319335925,2.0826743530273437,2.8313361938476564,-3.830343511450381,-3.106217557251908,9.423217557251908,0
7899,6.934747229003906,2.0707033447265624,2.8026057739257815,-5.502099236641222,4.687675572519084,10.331614503816793,0
7924,6.975448657226562,2.1928076293945313,2.6421942626953125,-5.097519083969466,7.222026717557252,8.323980916030534,0
7949,6.827008154296874,2.0802801513671874,2.5009363647460936,-2.1967557251908394,-2.060416030534351,6.545354961832061,0
7974,6.501396728515624,1.8121295654296874,2.5224841796875,-0.8456106870229009,-5.442095419847329,6.110240458015267,0
7999,6.6067416015625,1.788187548828125,2.57994501953125,-2.0975190839694657,2.2372938931297712,5.438484732824427,0
8024,6.803066137695311,1.8025527587890624,2.4626291381835936,0.024618320610687028,-0.6100343511450381,5.407950381679389,0
8049,6.716874877929686,1.7139672973632811,2.5081189697265627,3.910114503816794,-5.663469465648856,6.064438931297709,0
8074,6.5301271484375,1.56792099609375,2.493753759765625,5.2688931297709924,-1.0909503816793893,7.0262709923664115,0
8100,6.661808239746093,1.7474861206054686,2.4434755249023437,5.337595419847328,2.6266068702290077,6.530087786259542,0
8125,6.803066137695311,1.7833991455078124,2.4338987182617187,5.734541984732824,0.21439312977099245,5.339248091603053,0
8150,6.8772863891601554,1.8049469604492185,2.4219277099609378,6.894847328244275,-4.464996183206107,3.843064885496183,0
8175,6.910805212402344,1.8336773803710935,2.436292919921875,8.856679389312976,-8.831408396946564,3.247645038167939,0
8200,6.98263126220703,1.7953701538085935,2.4913595581054686,11.169656488549618,-9.5795,3.6751259541984735,0
8225,6.937141430664062,2.0635207397460937,2.4482639282226564,11.963549618320611,-6.533698473282442,4.262912213740458,0
8250,7.078399328613281,2.0539439331054687,2.321371240234375,10.933015267175572,-5.319958015267176,2.4690190839694655,0
8275,7.090370336914062,2.2215380493164063,2.4985421630859377,12.383396946564885,-12.610034351145037,-0.6607519083969465,0
8300,7.078399328613281,2.2885756958007812,2.5943102294921876,11.665839694656489,-6.274156488549618,-5.874492366412214,0
8325,7.279512268066406,2.305335107421875,2.5655798095703126,10.13148854961832,0.18385877862595423,-9.347774809160306,0
8350,7.375280334472655,2.1664714111328127,2.6014928344726562,11.268893129770992,-8.671103053435115,-9.668385496183207,0
8375,7.090370336914062,1.9318396484374998,2.5176957763671877,9.513167938931298,-9.510797709923663,-5.935561068702291,0
8400,6.922776220703125,1.9246570434570311,2.3836204833984374,3.9864503816793895,-1.694003816793893,-0.08823282442748093,0
8425,7.131071765136718,2.046761328125,2.2208147705078125,-1.6166030534351146,2.389965648854962,3.23237786259542,0
8450,7.255570251464843,2.1760482177734377,2.302217626953125,-3.4868320610687022,-2.6176679389312976,2.5911564885496183,0
8475,7.20050361328125,2.1688656127929686,2.2399683837890625,-4.311259541984733,-8.71690458015267,-0.355408396946565,0
8501,7.143042773437499,2.1568946044921877,2.1825075439453125,-5.998282442748092,-10.381026717557251,-3.515713740458015,0
8526,7.169378991699218,2.1664714111328127,2.175324938964844,-7.143320610687023,-10.755072519083969,-5.859225190839695,0
8551,7.080793530273437,2.190413427734375,2.04364384765625,-8.02881679389313,-12.663469465648854,-5.332507633587786,0
8576,7.018544287109374,2.1353467895507814,2.1322293090820312,-7.3952290076335885,-8.045148854961832,-4.225637404580153,0
8601,7.092764538574218,2.1018279663085937,1.9742119995117184,-3.6624045801526717,-0.8085076335877863,-4.447011450381679,0
8626,7.310636889648436,2.0994337646484373,2.0747684692382813,1.757442748091603,4.367064885496183,-5.706553435114504,0
8651,7.411193359374999,2.039578723144531,2.1011046875,6.062786259541984,6.305996183206107,-6.019530534351145,0
8676,7.54526865234375,2.0802801513671874,2.251939392089844,6.131488549618321,9.680041984732824,-3.9126603053435116,0
8701,7.801448229980468,2.020425109863281,2.3812262817382814,4.1620229007633585,7.0998893129770995,-0.4393778625954198,0
8726,7.573999072265624,2.094645361328125,2.3668610717773437,0.11622137404580152,2.8861488549618324,3.9575687022900765,0
8751,7.449500585937499,2.0539439331054687,2.3046118286132815,-4.2883587786259545,2.466301526717557,7.301080152671755,0
8776,7.363309326171874,1.9677526733398436,2.309400231933594,-7.257824427480917,1.2983625954198474,8.186576335877863,0
8801,7.188532604980469,1.9509932617187498,2.290246618652344,-9.02881679389313,2.267828244274809,7.3621488549618315,0
8826,7.226839831542969,1.8839556152343748,2.218420568847656,-9.601335877862596,0.9472175572519085,5.423217557251908,0
8851,7.229234033203125,1.8576193969726562,2.15856552734375,-9.899045801526718,-2.4497290076335876,3.3774160305343512,0
8876,7.133465966796874,1.8241005737304685,2.069980065917969,-9.769274809160306,-4.739805343511451,2.484286259541985,0
8902,7.111918151855469,1.6876310791015623,1.9981540161132811,-9.822709923664123,-2.663469465648855,2.2705458015267177,0
8927,7.272329663085936,1.6732658691406248,2.0220960327148436,-7.19675572519084,-2.8543091603053434,2.3774160305343512,0
8952,7.284300671386718,1.6660832641601562,2.0220960327148436,-2.9982824427480916,-5.686370229007634,3.1942099236641224,0
8977,7.138254370117187,1.6421412475585937,2.1250467041015626,-1.059351145038168,-0.8924770992366411,4.507187022900763,0
9002,7.116706555175781,1.5080659545898436,2.079556872558594,-1.2654580152671757,5.565538167938932,6.598790076335877,0
9027,7.13586016845703,1.570315197753906,2.0939220825195313,-1.1051526717557252,4.794545801526718,8.927034351145037,0
9052,7.164590588378906,1.6493238525390623,2.213632165527344,-2.5631679389312976,8.191492366412215,7.094973282442748,0
9077,7.404010754394531,1.7762165405273436,2.283064013671875,-3.6700381679389316,8.44340076335878,2.698026717557252,0
9102,7.533297644042968,1.6229876342773437,2.1226525024414062,-3.2654580152671753,0.39759923664122154,-1.2256374045801528,0
9127,7.463865795898436,1.577497802734375,2.266304602050781,-2.624236641221374,-5.76270610687023,-1.0805992366412216,0
9152,7.504567224121092,1.558344189453125,2.204055358886719,-3.441030534351145,-2.4268282442748093,1.7209274809160306,0
9177,7.655401928710936,1.7546687255859374,2.3477074584960937,-3.5555343511450377,4.3136297709923666,5.04917175572519,0
9202,7.734410583496094,1.7043904907226561,2.3357364501953124,-3.0440839694656487,5.817446564885497,9.079706106870228,0
9227,7.5524512573242175,1.7043904907226561,2.2591219970703125,-3.3494274809160305,1.954851145038168,13.133141221374045,0
9252,7.1957152099609365,1.5751036010742185,2.213632165527344,-4.929580152671756,1.237293893129771,15.667492366412214,0
9277,7.0089674804687485,1.4410283081054687,2.223208972167969,-5.311259541984733,0.44340076335877876,15.362148854961832,0
9303,6.858132775878906,1.4027210815429687,2.2686988037109375,-4.754007633587786,1.222026717557252,12.491919847328244,0
9328,6.7623647094726556,1.4218746948242187,2.1968727539062503,-3.7845419847328245,0.24492748091603067,8.102606870229007,0
9354,6.788700927734374,1.2854052001953125,2.2208147705078125,-2.7769083969465647,-1.1214847328244275,3.011003816793893,0
9379,6.673779248046874,1.2399153686523436,2.1346235107421876,-2.2272900763358776,-2.174919847328244,0.033904580152671726,0
9404,6.740816894531249,1.321318225097656,2.2686988037109375,-2.769274809160305,0.4663015267175573,-1.4546450381679388,0
9429,6.781518322753905,1.4290572998046873,2.189690148925781,-2.769274809160305,0.8098129770992367,-2.76762213740458,0
9454,6.815037145996093,1.4649703247070311,2.1633539306640626,-1.9753816793893129,-0.44209541984732814,-4.347774809160306,0
9480,6.884468994140625,1.539190576171875,2.1034988891601563,-1.0364503816793893,1.4739351145038169,-6.2027366412213745,0
9505,6.891651599121093,1.5056717529296875,2.1777191406250003,1.4826335877862595,-1.5336984732824428,-6.27907251908397,0
9530,6.815037145996093,1.481729736328125,2.35010166015625,1.5666030534351143,3.1227900763358782,-5.744721374045802,0
9555,7.011361682128906,1.522431164550781,2.4099567016601564,0.7269083969465648,6.962484732824427,-6.065332061068703,0
9580,6.999390673828125,1.4099036865234373,2.4075625,1.589503816793893,2.0006526717557254,-6.966095419847329,0
9605,6.999390673828125,1.4889123413085936,2.4386871215820314,1.0780534351145037,2.3136297709923666,-8.683652671755725,0
9630,7.274723864746092,1.599045617675781,2.4602349365234377,1.2383587786259542,6.076988549618321,-11.172202290076337,0
9655,7.550057055664062,1.6277760375976562,2.5655798095703126,3.047519083969466,5.6571412213740455,-12.469912213740459,0
9680,7.597941088867187,1.7857933471679686,2.644588464355469,3.9635496183206107,5.08462213740458,-11.187469465648855,0
9705,7.679343945312499,1.6780542724609373,2.7379623291015625,2.5055343511450383,5.359431297709923,-7.4164770992366424,0
9730,7.578787475585936,1.6589006591796873,2.673318884277344,0.7040076335877863,5.412866412213741,-3.1645687022900764,0
9755,7.595546887207031,1.749880322265625,2.606281237792969,-2.471564885496183,5.8708816793893135,0.10260687022900761,0
9780,7.473442602539062,1.7187557006835936,2.615858044433594,-4.525,1.8632480916030536,1.8277977099236642,0
9805,7.334578906249999,1.730726708984375,2.5943102294921876,-5.845610687022901,-2.9306450381679388,2.362148854961832,0
9830,7.073610925292969,1.587074609375,2.4698117431640627,-6.891412213740458,-5.41919465648855,1.8735992366412213,0
9855,7.064034118652343,1.6014398193359374,2.27348720703125,-8.265458015267177,-4.3581259541984725,0.3850496183206107,0
9880,7.078399328613281,1.6373528442382812,2.1537771240234376,-7.379961832061069,-5.312324427480917,-1.9584618320610687,0
9906,7.073610925292969,1.730726708984375,2.0963162841796876,-5.586068702290077,-6.144385496183206,-3.6836526717557248,0
9931,7.133465966796874,1.752274523925781,2.146594519042969,-3.0975190839694657,-4.06041603053435,-4.156935114503817,0
9956,7.13586016845703,1.7283325073242186,2.1418061157226562,-0.17385496183206106,-1.961179389312977,-2.6760190839694658,0
9981,7.068822521972655,1.749880322265625,2.180113342285156,2.589503816793893,0.75637786259542,0.10260687022900761,0
10006,7.068822521972655,1.7474861206054686,2.266304602050781,3.009351145038168,6.93958396946565,1.8659656488549619,0
10031,7.207686218261718,1.749880322265625,2.3572842651367187,4.024618320610687,6.954851145038168,1.9804694656488548,0
10056,7.066428320312499,1.6852368774414062,2.436292919921875,4.620038167938931,2.3975992366412213,1.3010801526717557,0
10081,6.898834204101562,1.6181992309570312,2.50333056640625,3.2841603053435113,2.321263358778626,0.17894274809160304,0
10106,7.037697900390625,1.6732658691406248,2.596704431152344,1.3681297709923665,4.6571412213740455,-1.8057900763358776,0
10131,7.198109411621092,1.8432541870117185,2.6134638427734376,0.6505725190839694,3.825080152671756,-3.866858778625954,0
10156,7.25078184814453,1.8480425903320312,2.711626110839844,0.9559160305343511,0.45866793893129776,-5.897393129770993,0
10181,7.348944116210936,1.838465783691406,2.706837707519531,0.16202290076335873,-0.19018702290076317,-5.737087786259543,0
10206,7.399222351074218,1.8360715820312499,2.673318884277344,-1.7005725190839693,1.0769885496183207,-4.065332061068703,0
10231,7.490202014160155,1.9390222534179686,2.6900782958984375,-3.1585877862595417,-0.15965267175572517,-1.7828893129770993,0
10256,7.459077392578124,1.9653584716796872,2.637405859375,-3.5708015267175575,-2.495530534351145,0.2018435114503816,0
10281,7.25078184814453,1.809735363769531,2.5727624145507813,-3.9982824427480916,-4.381026717557251,2.4766526717557253,0
10306,7.049668908691406,1.6349586425781248,2.4961479614257813,-4.471564885496184,-2.342858778625954,3.1560419847328247,0
10331,7.0233326904296876,1.6205934326171874,2.397985693359375,-4.204389312977099,-0.35812595419847315,1.3926832061068701,0
10357,7.054457312011718,1.6517180541992187,2.3046118286132815,-2.1967557251908394,-2.8314083969465647,-1.7828893129770993,0
10382,6.946718237304688,1.6852368774414062,2.1537771240234376,0.16202290076335873,-2.877209923664122,-4.156935114503817,0
10407,6.9515066406249995,1.781004943847656,2.251939392089844,1.7956106870229007,0.12279007633587802,-4.240904580152672,0
10432,7.143042773437499,1.9007150268554687,2.2926408203125,3.2154580152671755,6.038820610687022,-3.4775458015267176,0
10457,7.253176049804687,1.9845120849609375,2.4602349365234377,5.398664122137404,5.206759541984733,-1.9660954198473282,0
10482,7.076005126953125,1.8863498168945312,2.532060986328125,6.116221374045801,3.1991259541984736,1.4079503816793892,0
10507,6.980237060546874,1.79776435546875,2.5655798095703126,4.505534351145037,8.41286641221374,4.011003816793893,0
10532,7.087976135253906,1.8576193969726562,2.706837707519531,4.551335877862595,8.313629770992366,3.682759541984733,0
10557,7.190926806640625,1.8959266235351562,2.7140203125,3.8490458015267177,6.313629770992366,0.29344656488549614,0
10582,7.190926806640625,1.9605700683593748,2.7882405639648438,3.1696564885496183,0.7716450381679391,-2.4775458015267176,0
10607,7.245993444824218,2.0252135131835938,2.761904345703125,1.6276717557251907,-0.15965267175572517,-3.416477099236641,0
10632,7.341761511230469,1.9485990600585936,2.7786637573242188,0.558969465648855,2.466301526717557,-2.836324427480916,0
10657,7.504567224121092,1.8743788085937498,2.630223254394531,0.5666030534351145,0.9777519083969466,-1.2332709923664122,0
10682,7.451894787597655,1.8480425903320312,2.721202917480469,0.8566793893129772,0.6037061068702291,1.3850496183206107,0
10707,7.336973107910155,1.8432541870117185,2.6900782958984375,0.07041984732824424,1.6037061068702292,5.255278625954198,0
10732,7.248387646484374,1.6660832641601562,2.6805014892578125,-1.4028625954198475,1.2143931297709925,8.2171106870229,0
10757,7.169378991699218,1.7211499023437498,2.625434851074219,-3.051717557251908,-1.6558358778625952,8.759095419847329,0
10782,7.056851513671874,1.6014398193359374,2.5655798095703126,-4.639503816793893,-4.037515267175573,7.079706106870229,0
10808,6.98263126220703,1.4529993164062498,2.4722059448242186,-5.128053435114504,-6.968812977099237,4.56062213740458,0
10833,6.841373364257811,1.551161584472656,2.3477074584960937,-4.547900763358779,-6.678736641221374,2.461385496183206,0
10858,6.963477648925781,1.5822862060546874,2.283064013671875,-3.456297709923664,-2.510797709923664,0.7285610687022901,0
10883,7.152619580078125,1.7187557006835936,2.309400231933594,-0.4104961832061069,-1.9153778625954199,-0.7141870229007633,0
10908,7.123889160156248,1.6684774658203123,2.3668610717773437,2.612404580152672,-1.3199580152671753,-0.7294541984732824,0
10933,7.143042773437499,1.6636890624999998,2.4530523315429686,3.81087786259542,2.6418740458015266,1.331614503816794,0
10958,7.05924571533203,1.6493238525390623,2.5200899780273436,4.3757633587786255,5.153324427480916,4.148408396946564,0
10983,6.865315380859374,1.560738391113281,2.57994501953125,4.620038167938931,5.931950381679389,6.415583969465649,0
11008,6.865315380859374,1.579892004394531,2.539243591308594,3.024618320610687,9.695309160305344,5.171309160305343,0
11033,7.0089674804687485,1.6134108276367187,2.5296667846679686,2.2383587786259542,6.970118320610688,1.3774160305343512,0
11058,7.030515295410155,1.5822862060546874,2.745144934082031,1.9177480916030536,0.44340076335877876,-2.912660305343511,0
11083,7.078399328613281,1.6565064575195312,2.73317392578125,-0.22729007633587783,-1.3733931297709923,-5.62258396946565,0
11108,7.23881083984375,1.6612948608398437,2.8145767822265624,-2.0975190839694657,-1.8390419847328245,-5.683652671755725,0
11133,7.1214949584960925,1.6349586425781248,2.663742077636719,-3.960114503816794,-3.9688129770992364,-3.4622786259541987,0
11158,7.140648571777343,1.5535557861328124,2.706837707519531,-6.021183206106871,-2.7169045801526717,-1.5615152671755723,0
11184,7.257964453124999,1.6421412475585937,2.4961479614257813,-7.013549618320611,-3.1901870229007634,-0.6531183206106871,0
11209,7.317819494628906,1.6373528442382812,2.4985421630859377,-7.013549618320611,-5.213087786259543,-0.5691488549618321,0
11234,7.34654991455078,1.6158050292968749,2.4602349365234377,-6.418129770992366,-7.258889312977098,-0.2867061068702291,0
11259,7.305848486328125,1.7235441040039061,2.4099567016601564,-5.37232824427481,-7.06041603053435,0.6980267175572519,0
11284,7.255570251464843,1.6565064575195312,2.3740436767578124,-4.647137404580153,-4.594767175572519,1.644591603053435,0
11309,7.150225378417969,1.6086224243164062,2.3524958618164065,-2.990648854961832,-4.785606870229007,2.011003816793893,0
11334,7.013755883789062,1.5056717529296875,2.180113342285156,-1.570801526717557,-2.991713740458015,1.6140572519083969,0
11359,7.030515295410155,1.51046015625,2.2112379638671875,-0.2196564885496184,-0.678736641221374,0.3697824427480916,0
11384,6.994602270507811,1.5152485595703125,2.2016611572265625,1.1009541984732825,0.6495076335877864,-1.3554083969465647,0
11409,7.05924571533203,1.5248253662109374,2.3285538452148438,2.2994274809160307,1.4205,-2.7370877862595417,0
11434,7.052063110351562,1.6493238525390623,2.290246618652344,3.13912213740458,0.8937824427480917,-3.050064885496183,0
11459,7.1957152099609365,1.7091788940429686,2.3692552734375,3.8643129770992366,1.1609580152671757,-2.6378511450381676,0
11484,7.17416739501953,1.6708716674804687,2.3333422485351565,5.864312977099236,-5.052782442748091,-2.43937786259542,0
11509,6.98263126220703,1.6110166259765624,2.436292919921875,5.558969465648855,-6.083316793893129,-0.8821259541984733,0
11534,6.853344372558593,1.56792099609375,2.5296667846679686,2.528435114503817,1.786912213740458,-0.2409045801526718,0
11559,7.004179077148437,1.7187557006835936,2.4793885498046877,1.0017175572519084,4.977751908396947,-0.9279274809160306,0
11585,7.0831877319335925,1.7738223388671874,2.4075625,2.230725190839695,0.405232824427481,-3.1493015267175575,0
11610,7.131071765136718,1.819312170410156,2.4458697265625,2.658206106870229,0.5426374045801527,-5.912660305343512,0
11635,7.28908907470703,1.970146875,2.4913595581054686,2.108587786259542,0.573171755725191,-7.26380534351145,0
11660,7.406404956054687,1.970146875,2.4243219116210937,2.0475190839694655,-0.9382786259541982,-7.2103702290076335,0
11685,7.480625207519531,1.8767730102539062,2.5344551879882813,2.177290076335878,-1.846675572519084,-5.065332061068703,0
11710,7.521326635742187,1.8624078002929687,2.6326174560546876,1.421564885496183,0.42813358778625965,-2.2561717557251906,0
11735,7.585970080566406,1.8121295654296874,2.5919160278320312,-0.06698473282442752,2.0922557251908396,0.24764503816793892,0
11760,7.61470050048828,1.8552251953124999,2.587127624511719,-2.8303435114503817,0.6037061068702291,1.9194007633587784,0
11785,7.449500585937499,1.79776435546875,2.4075625,-5.02881679389313,-4.548965648854962,2.2323778625954196,0
11810,7.214868823242187,1.5751036010742185,2.3812262817382814,-6.212022900763359,-8.07568320610687,2.6674923664122137,0
11835,7.011361682128906,1.5056717529296875,2.148988720703125,-6.70057251908397,-4.045148854961832,2.843064885496183,0
11860,7.044880505371093,1.5463731811523436,1.9215395629882812,-4.257824427480917,-2.365759541984733,1.5835229007633589,0
11885,7.018544287109374,1.6134108276367187,1.871261328125,-0.8303435114503818,-1.5336984732824428,-0.19510305343511447,0
11910,7.0472747070312485,1.7355151123046875,1.9598467895507812,2.658206106870229,-0.04514885496183196,-0.8210572519083971,0
11935,7.092764538574218,1.788187548828125,1.9622409912109375,5.345229007633588,2.557904580152672,0.6980267175572519,0
11960,7.049668908691406,1.8863498168945312,2.1920843505859375,7.329961832061068,4.718209923664123,2.8048969465648854,0
11985,6.94432403564453,1.8887440185546873,2.256727795410156,7.994083969465649,6.741110687022902,4.316347328244275,0
12011,7.035303698730467,1.9845120849609375,2.3644668701171874,8.291793893129771,4.008286259541984,3.6674923664122137,0
12036,6.886863195800781,1.8767730102539062,2.4674175415039064,8.528435114503816,-1.3123244274809158,1.1942099236641222,0
12061,6.810248742675781,1.9222628417968748,2.436292919921875,6.108587786259542,-0.5718664122137405,-3.0271641221374046,0
12086,7.004179077148437,1.8312831787109374,2.4674175415039064,4.14675572519084,-0.7016374045801528,-7.271438931297711,0
12111,7.210080419921874,1.8648020019531248,2.5248783813476563,3.8337786259541984,-3.770339694656488,-9.538614503816794,0
12136,7.305848486328125,1.9318396484374998,2.577550817871094,3.2154580152671755,-6.770339694656489,-8.370675572519085,0
12161,7.320213696289062,1.8719846069335937,2.5272725830078127,1.490267175572519,-5.694003816793893,-5.714187022900764,0
12186,7.248387646484374,1.9055034301757812,2.5440319946289063,-1.1814885496183205,-1.1367519083969464,-2.156935114503817,0
12211,7.243599243164062,1.8935324218749998,2.5153015747070313,-4.158587786259543,0.0006526717557253647,0.9575687022900763,0
12236,7.20050361328125,1.8863498168945312,2.321371240234375,-6.234923664122138,-0.846675572519084,1.2781793893129771,0
12261,7.114312353515625,1.7833991455078124,2.127440905761719,-6.326526717557252,-4.686370229007634,-0.721820610687023,0
12286,7.011361682128906,1.7546687255859374,2.0388554443359377,-5.212022900763359,-5.190187022900764,-3.3706755725190836,0
12311,7.001784875488281,1.7019962890624998,1.9957598144531248,-3.0364503816793893,-3.464996183206107,-5.233270992366412,0
12336,7.0999471435546875,1.771428137207031,2.0316728393554686,-0.1662213740458015,-0.48789694656488547,-5.210370229007634,0
12361,7.198109411621092,1.8911382202148437,2.1322293090820312,2.490267175572519,2.870881679389313,-3.737087786259542,0
12386,7.219657226562499,1.970146875,2.1154698974609376,4.543702290076335,3.3288969465648854,-1.5920496183206105,0
12412,7.128677563476562,1.9869062866210936,2.2782756103515625,5.039885496183206,4.733477099236641,1.0033702290076336,0
12437,7.150225378417969,1.9581758666992186,2.3165828369140624,4.001717557251908,5.328896946564885,1.9423015267175572,0
12462,7.193321008300781,2.10422216796875,2.290246618652344,3.352862595419847,1.771645038167939,0.35451526717557247,0
12487,7.035303698730467,2.209567041015625,2.3381306518554688,1.772709923664122,-2.312324427480916,-2.8057900763358776,0
12512,7.056851513671874,2.209567041015625,2.290246618652344,-0.17385496183206106,-5.136751908396947,-5.149301526717558,0
12537,7.111918151855469,2.113798974609375,2.3165828369140624,-1.6776717557251906,-5.655835877862595,-6.126400763358779,0
12562,7.028121093749999,2.1066163696289064,2.271093005371094,-2.479198473282443,-6.235988549618321,-4.408843511450382,0
12587,7.0616399169921875,2.0443671264648438,2.3046118286132815,-3.624236641221374,-1.7092709923664122,-2.584416030534351,0
12612,7.181349999999999,2.0515497314453124,2.1633539306640626,-3.341793893129771,-0.3046908396946564,-2.317240458015267,0
12637,7.303454284667969,2.0850685546875,2.208843762207031,-2.441030534351145,-3.1825534351145035,-3.7141870229007634,0
12662,7.23881083984375,2.010848303222656,2.1442003173828126,-2.173854961832061,-4.068049618320611,-4.828690839694657,0
12687,7.222051428222655,2.0132425048828124,2.1346235107421876,-2.257824427480916,-3.442095419847328,-5.141667938931298,0
12712,7.164590588378906,1.9246570434570311,1.85210771484375,-1.3188931297709923,-6.541332061068703,-5.3172404580152675,0
12737,7.056851513671874,1.828888977050781,1.8592903198242186,-0.12041984732824429,-6.686370229007633,-6.0958664122137405,0
12763,7.111918151855469,1.979723681640625,1.7491570434570312,0.024618320610687028,-0.7398053435114504,-6.94319465648855,0
12788,7.35373251953125,2.2071728393554686,1.835348303222656,1.2536259541984731,0.1914923664122139,-6.630217557251909,0
12813,7.4566831909179685,2.331671325683594,1.816194689941406,3.1314885496183207,-2.060416030534351,-4.553881679389313,0
12838,7.365703527832031,2.3580075439453125,2.0220960327148436,3.9177480916030536,-1.014614503816794,-1.469912213740458,0
12863,7.1598021850585924,2.3963147705078125,2.04364384765625,4.658206106870229,1.321263358778626,1.4919198473282442,0
12888,7.087976135253906,2.427439392089844,2.0747684692382813,5.4826335877862595,5.588438931297709,2.316347328244275,0
12913,7.162196386718748,2.4058915771484375,2.079556872558594,6.871946564885496,9.214393129770993,0.5682557251908397,0
12938,7.284300671386718,2.408285778808594,2.218420568847656,9.268893129770992,9.191492366412215,-1.7218206106870229,0
12963,7.377674536132811,2.365190148925781,2.3716494750976564,9.826145038167938,7.351797709923664,-2.7141870229007634,0
12988,7.427952770996092,2.307729309082031,2.455446533203125,8.055152671755724,6.031187022900763,-1.8897595419847328,0
13013,7.368097729492187,2.2885756958007812,2.635011657714844,4.887213740458015,5.25256106870229,0.7514618320610686,0
13038,7.248387646484374,2.2718162841796876,2.635011657714844,1.8108778625954196,3.1991259541984736,3.659858778625954,0
13063,7.255570251464843,2.1401351928710937,2.3716494750976564,-1.1127862595419846,1.5655381679389313,4.858332061068702,0
13088,7.0472747070312485,2.1090105712890623,2.3548900634765624,-2.937213740458015,1.0998893129770995,3.8888664122137406,0
13114,6.824613952636718,2.010848303222656,2.25433359375,-2.8532442748091604,-0.34285877862595404,2.148408396946565,0
13139,6.917987817382811,2.056338134765625,2.170536535644531,-1.7234732824427481,0.8098129770992367,-0.6607519083969465,0
13164,7.040092102050781,2.1832308227539063,2.170536535644531,0.23835877862595417,1.336530534351145,-3.3477748091603057,0
13189,7.176561596679687,2.2071728393554686,2.1777191406250003,2.108587786259542,0.7258435114503817,-4.546248091603053,0
13214,7.219657226562499,2.317306115722656,2.302217626953125,3.3833969465648854,1.504469465648855,-3.202736641221374,0
13239,7.21247462158203,2.2071728393554686,2.397985693359375,4.13912213740458,4.153324427480916,0.02627099236641217,0
13264,7.25078184814453,2.3388539306640626,2.4482639282226564,3.429198473282443,8.741110687022902,3.3774160305343512,0
13289,7.210080419921874,2.350824938964844,2.4243219116210937,2.5055343511450383,6.710576335877862,5.39268320610687,0
13314,7.078399328613281,2.2885756958007812,2.484176953125,1.3604961832061069,3.1991259541984736,5.316347328244275,0
13339,6.858132775878906,2.2622394775390626,2.5248783813476563,-0.27309160305343516,2.7411106870229007,3.942301526717557,0
13364,6.915593615722655,2.2430858642578126,2.4099567016601564,-2.4486641221374046,3.993019083969466,1.4308511450381678,0
13389,7.052063110351562,2.247874267578125,2.4674175415039064,-3.1814885496183205,-0.09858396946564874,-0.7752557251908397,0
13414,7.052063110351562,2.29575830078125,2.4123509033203128,-3.9295801526717553,-4.068049618320611,-2.7599885496183205,0
13439,7.040092102050781,2.2789988891601562,2.4219277099609378,-4.960114503816794,-3.900110687022901,-3.225637404580153,0
13464,7.131071765136718,2.199990234375,2.3429190551757815,-5.357061068702291,-3.8695763358778623,-1.821057251908397,0
13490,7.202897814941406,2.2909698974609376,2.3333422485351565,-5.906679389312978,-1.9917137404580152,0.17894274809160304,0
13515,7.260358654785155,2.2382974609375,2.275881408691406,-6.082251908396947,-2.0680496183206105,1.4384847328244275,0
13540,7.1598021850585924,2.2430858642578126,2.1729307373046876,-5.494465648854963,-4.373393129770992,1.797263358778626,0
13565,7.133465966796874,2.2311148559570313,2.127440905761719,-5.36469465648855,-3.457362595419847,1.4461183206106871,0
13590,7.133465966796874,2.1928076293945313,2.0580090576171877,-5.097519083969466,-3.2894236641221375,0.8735992366412213,0
13615,7.080793530273437,2.1066163696289064,2.0963162841796876,-3.845610687022901,-4.76270610687023,0.46138549618320607,0
13640,6.831796557617186,2.14252939453125,2.0460380493164063,-2.9295801526717558,-4.197820610687023,0.7590954198473282,0
13665,6.898834204101562,2.1401351928710937,1.9885772094726561,-2.960114503816794,1.6876755725190842,0.3850496183206107,0
13690,7.09755294189453,2.1616830078125,2.0963162841796876,-1.8837786259541982,0.10752290076335891,-1.1264007633587787,0
13715,7.068822521972655,2.226326452636719,2.129835107421875,0.37576335877862593,-2.388660305343511,-2.7370877862595417,0
13740,7.162196386718748,2.1880192260742186,2.1130756958007813,1.2841603053435113,0.6037061068702291,-2.515713740458015,0
13765,7.092764538574218,2.274210485839844,2.184901745605469,1.871946564885496,0.8861488549618322,-0.14930152671755736,0
13790,7.073610925292969,2.1664714111328127,2.2399683837890625,1.6734732824427483,1.5350038167938933,2.659858778625954,0
13815,6.963477648925781,2.1760482177734377,2.359678466796875,0.5666030534351145,3.0006526717557254,3.4384847328244277,0
13840,6.891651599121093,2.1975960327148436,2.227997375488281,-0.4791984732824428,2.7487442748091606,2.0186374045801525,0
13866,6.922776220703125,2.1401351928710937,2.2782756103515625,-0.9677480916030535,0.8785152671755726,-2.27143893129771,0
13891,7.0616399169921875,2.2335090576171877,2.309400231933594,-0.3952290076335878,-1.5489656488549617,-6.935561068702291,0
13916,7.164590588378906,2.2143554443359377,2.2686988037109375,-0.7463740458015268,-2.029881679389313,-8.630217557251909,0
13941,7.305848486328125,2.2406916625976563,2.3285538452148438,-1.69293893129771,-1.3199580152671753,-6.782889312977099,0
13966,7.490202014160155,2.2382974609375,2.4075625,-3.8074427480916033,-0.31232442748091604,-3.195103053435114,0
13991,7.466259997558592,2.317306115722656,2.2399683837890625,-5.227290076335878,-2.4344618320610687,0.04153816793893128,0
14016,7.396828149414062,2.1832308227539063,2.1633539306640626,-6.143320610687023,-3.91537786259542,2.1407748091603054,0
14041,7.190926806640625,2.1161931762695314,1.9813946044921875,-5.799809160305344,-4.3581259541984725,1.9423015267175572,0
14066,7.080793530273437,2.094645361328125,1.8784439331054685,-3.86087786259542,-4.686370229007634,0.4690190839694656,0
14091,7.078399328613281,2.018030908203125,1.7874642700195311,-1.4257633587786258,-2.6176679389312976,-1.0424312977099235,0
14116,7.176561596679687,2.152106201171875,1.816194689941406,0.9788167938931297,0.21439312977099245,-2.034797709923664,0
14141,7.147831176757811,2.2071728393554686,1.9957598144531248,3.7879770992366413,1.4357671755725192,-1.6149503816793893,0
14166,7.078399328613281,2.1832308227539063,1.9933656127929684,5.833778625954198,3.634240458015267,0.3468816793893129,0
14191,7.085581933593748,2.2239322509765627,2.041249645996094,5.95591603053435,8.466301526717558,1.9423015267175572,0
14216,7.207686218261718,2.267027880859375,2.1777191406250003,7.0551526717557245,6.191492366412215,2.4766526717557253,0
14241,7.078399328613281,2.1880192260742186,2.237574182128906,6.780343511450381,4.054087786259542,2.2552786259541984,0
14266,6.963477648925781,2.1784424194335936,2.4410813232421877,5.787977099236641,4.26782824427481,2.0491717557251907,0
14292,6.994602270507811,2.305335107421875,2.558397204589844,4.81087786259542,4.481568702290076,1.2781793893129771,0
14317,7.073610925292969,2.331671325683594,2.4602349365234377,3.375763358778626,4.893782442748092,-0.1416679389312977,0
14342,7.09755294189453,2.3580075439453125,2.6038870361328126,1.940648854961832,1.5197366412213742,-1.7828893129770993,0
14367,7.030515295410155,2.2718162841796876,2.6014928344726562,-0.18148854961832062,0.4663015267175573,-2.2332709923664122,0
14392,7.092764538574218,2.29575830078125,2.4769943481445313,-2.6624045801526717,0.6647748091603054,-2.286706106870229,0
14417,7.20050361328125,2.1975960327148436,2.4961479614257813,-4.04408396946565,-2.2817900763358776,-2.0653320610687023,0
14442,7.20050361328125,2.2766046875,2.321371240234375,-5.318893129770993,-3.022248091603053,-1.8973931297709923,0
14467,7.190926806640625,2.1018279663085937,2.199266955566406,-6.120419847328245,-4.73217175572519,-1.7599885496183205,0
14492,7.286694873046874,2.190413427734375,2.0771626708984376,-6.219656488549619,-5.006980916030534,-1.76762213740458,0
14517,7.17416739501953,2.2406916625976563,1.9478757812499998,-4.463931297709924,-5.709270992366411,-1.5538816793893129,0
14542,7.13586016845703,2.1760482177734377,1.9382989746093748,-1.3265267175572517,-2.08331679389313,-0.889759541984733,0
14567,7.128677563476562,2.190413427734375,1.9526641845703123,1.826145038167939,2.954851145038168,-0.2561717557251909,0
14592,7.133465966796874,2.2789988891601562,2.053220654296875,4.520801526717557,4.573171755725191,0.7667290076335878,0
14617,7.104735546874999,2.2766046875,2.137017712402344,5.543702290076335,6.260194656488549,2.148408396946565,0
14642,7.140648571777343,2.3915263671875002,2.263910400390625,5.879580152671755,6.565538167938932,2.4766526717557253,0
14667,7.056851513671874,2.360401745605469,2.4147451049804687,6.1620229007633585,3.7334770992366413,2.4995534351145037,0
14693,6.771941516113281,2.312517712402344,2.3357364501953124,5.223091603053435,2.771645038167939,3.698026717557252,0
14718,6.67617344970703,2.3580075439453125,2.3860146850585937,3.230725190839695,7.069354961832062,3.1713091603053436,0
14743,6.941929833984374,2.456169812011719,2.436292919921875,2.574236641221374,7.389965648854963,-0.6607519083969465,0
14768,7.119100756835937,2.5399668701171874,2.5344551879882813,3.9559160305343513,1.405232824427481,-5.759988549618321,0
14793,7.123889160156248,2.4992654418945315,2.56079140625,3.8643129770992366,-1.1978206106870228,-7.828690839694657,0
14818,7.013755883789062,2.3436423339843753,2.6230406494140626,3.2154580152671755,-0.4344618320610687,-5.27907251908397,0
14843,7.0472747070312485,2.264633679199219,2.769086950683594,1.30706106870229,5.008286259541984,-0.385942748091603,0
14868,7.23881083984375,2.247874267578125,2.723597119140625,-0.8150763358778627,6.504469465648855,2.3545152671755725,0
14893,7.27711806640625,2.2311148559570313,2.6038870361328126,-2.9448473282442746,0.9166832061068704,1.9194007633587784,0
14918,7.128677563476562,2.2598452758789063,2.539243591308594,-6.04408396946565,-4.182553435114503,-0.08059923664122137,0
14943,7.140648571777343,2.1497119995117187,2.3692552734375,-7.754007633587786,-7.9077442748091595,-1.7141870229007634,0
14968,7.068822521972655,2.1401351928710937,2.263910400390625,-7.70057251908397,-8.55659923664122,-2.4775458015267176,0
14993,7.102341345214843,2.171259814453125,2.1729307373046876,-6.425763358778626,-5.174919847328244,-2.8286908396946564,0
15018,7.133465966796874,2.274210485839844,2.089133679199219,-3.608969465648855,-3.022248091603053,-2.1416679389312976,0
15043,7.071216723632811,2.305335107421875,2.1130756958007813,-0.4944656488549618,-2.0527824427480916,-0.7065534351145039,0
15068,7.018544287109374,2.209567041015625,2.1011046875,1.5666030534351143,0.9472175572519085,0.7590954198473282,0
15093,7.131071765136718,2.2598452758789063,2.266304602050781,2.13912213740458,4.458667938931297,1.8812328244274807,0
15119,7.198109411621092,2.307729309082031,2.242362585449219,2.192557251908397,4.130423664122137,2.3392480916030536,0
15144,7.028121093749999,2.2382974609375,2.263910400390625,2.093320610687023,0.41286641221374065,2.8583320610687024,0
15169,7.011361682128906,2.441804602050781,2.4769943481445313,1.757442748091603,2.2830954198473283,2.9346679389312977,0
15194,7.004179077148437,2.420256787109375,2.4003798950195314,1.589503816793893,2.206759541984733,2.39268320610687,0
15219,6.815037145996093,2.417862585449219,2.4482639282226564,1.3833969465648854,0.4510343511450383,2.06443893129771,0
15244,6.925170422363281,2.379555358886719,2.558397204589844,-1.173854961832061,5.008286259541984,0.4155839694656488,0
15269,7.229234033203125,2.3723727539062502,2.4913595581054686,-2.18912213740458,1.1838587786259542,-2.134034351145038,0
15294,7.217263024902343,2.293364099121094,2.4386871215820314,-2.708206106870229,-4.8924770992366415,-2.93556106870229,0
15319,7.164590588378906,2.1664714111328127,2.5105131713867186,-4.36469465648855,-3.6558358778625952,-1.034797709923664,0
15344,7.09755294189453,2.1449235961914064,2.4315045166015627,-5.845610687022901,-2.900110687022901,2.079706106870229,0
15369,7.049668908691406,2.12337578125,2.2160263671875002,-7.227290076335878,-2.678736641221374,3.781996183206107,0
15394,6.994602270507811,2.087462756347656,2.069980065917969,-6.990648854961832,-4.5642328244274815,2.4003167938931296,0
15419,6.858132775878906,2.0898569580078123,2.0197018310546877,-5.746374045801527,-5.289423664122138,-0.7676221374045803,0
15444,6.968266052246093,2.1090105712890623,1.8473193115234374,-3.5708015267175575,-4.258889312977098,-4.187469465648856,0
15469,7.054457312011718,2.2430858642578126,1.9526641845703123,-0.06698473282442752,-5.167286259541985,-5.5309809160305345,0
15494,7.152619580078125,2.305335107421875,1.842530908203125,2.6963740458015266,-1.297057251908397,-4.149301526717558,0
15520,7.190926806640625,2.3627959472656253,2.0029424194335936,4.352862595419847,3.5273702290076336,-0.9050267175572518,0
15545,7.267541259765625,2.422650988769531,2.2399683837890625,5.856679389312977,4.947217557251909,2.9346679389312977,0
15570,7.126283361816406,2.4058915771484375,2.204055358886719,6.665839694656488,4.92431679389313,5.37741603053435,0
15595,6.94432403564453,2.29575830078125,2.263910400390625,6.360496183206107,4.847980916030535,6.552988549618321,0
15620,6.793489331054686,2.2215380493164063,2.3141886352539065,6.230725190839694,6.680041984732824,4.781996183206107,0
15645,6.9874196655273435,2.331671325683594,2.46502333984375,6.078053435114503,7.8708816793893135,-0.05769847328244282,0
15670,7.150225378417969,2.3580075439453125,2.4913595581054686,5.543702290076335,3.893782442748092,-4.27143893129771,0
15695,7.253176049804687,2.365190148925781,2.611069641113281,3.910114503816794,-0.846675572519084,-5.77525572519084,0
15720,7.241205041503906,2.2047786376953127,2.781057958984375,0.658206106870229,-0.6176679389312976,-3.233270992366412,0
15745,7.190926806640625,2.1688656127929686,2.654165270996094,-2.593702290076336,0.18385877862595423,0.8735992366412213,0
15770,7.35373251953125,2.1928076293945313,2.56079140625,-5.807442748091604,-0.4115610687022899,3.033904580152672,0
15795,7.325002099609374,2.0922511596679687,2.474600146484375,-6.799809160305344,-5.777973282442748,2.514820610687023,0
15820,7.152619580078125,2.0802801513671874,2.2782756103515625,-7.54026717557252,-9.526064885496183,1.2552786259541984,0
15845,7.078399328613281,2.077885949707031,2.1777191406250003,-7.547900763358779,-7.785606870229007,0.04153816793893128,0
15870,7.035303698730467,2.030001916503906,2.024490234375,-5.265458015267176,-6.304690839694656,-0.6760190839694656,0
15895,7.116706555175781,2.1066163696289064,2.0268844360351563,-2.891412213740458,-3.5107977099236645,-0.7676221374045803,0
15920,7.145436975097655,2.199990234375,1.9622409912109375,-0.28835877862595427,-1.1214847328244275,-0.4546450381679389,0
15946,7.178955798339843,2.2981525024414062,1.9766062011718748,1.7650763358778625,2.1456908396946566,-0.29433969465648857,0
15971,7.202897814941406,2.3197003173828126,2.0197018310546877,4.413931297709923,0.9777519083969466,0.4537519083969465,0
15996,7.092764538574218,2.2694220825195313,1.9861830078124998,5.238358778625954,1.9243167938931298,2.1407748091603054,0
16021,6.961083447265625,2.264633679199219,2.148988720703125,5.200190839694656,3.970118320610687,4.186576335877862,0
16046,6.996996472167967,2.2526626708984376,2.2016611572265625,5.230725190839694,4.512103053435115,5.22474427480916,0
16071,6.932353027343749,2.2622394775390626,2.3046118286132815,4.833778625954198,3.6418740458015266,4.262912213740458,0
16096,6.7599705078125,2.2813930908203126,2.4458697265625,4.169656488549618,1.5655381679389313,2.346881679389313,0
16121,6.79109512939453,2.216749645996094,2.455446533203125,2.475,2.657141221374046,-0.3401412213740459,0
16146,6.961083447265625,2.2909698974609376,2.3931972900390623,1.4444656488549619,1.5808053435114504,-3.4699122137404577,0
16171,7.171773193359374,2.326882922363281,2.3189770385742188,0.8566793893129772,-0.22835496183206105,-6.256171755725191,0
16196,7.272329663085936,2.4154683837890625,2.3908030883789064,0.15438931297709924,-1.9077442748091604,-6.43937786259542,0
16221,7.291483276367187,2.4346219970703125,2.3740436767578124,-1.35706106870229,-2.2512557251908394,-3.77525572519084,0
16246,7.17416739501953,2.4441988037109375,2.3070060302734374,-2.5326335877862594,-2.90774427480916,0.713293893129771,0
16271,6.98263126220703,2.247874267578125,2.2016611572265625,-2.7540076335877863,-1.4497290076335876,3.5987900763358778,0
16296,6.973054455566406,2.113798974609375,2.165748132324219,-2.3799618320610687,0.6876755725190841,2.4384847328244272,0
16322,7.013755883789062,2.068309143066406,2.0173076293945313,-0.8456106870229009,-1.6558358778625952,-1.8363244274809158,0
16347,7.0233326904296876,1.9749352783203125,2.1058930908203126,0.8261450381679389,-3.1901870229007634,-6.416477099236642,0
16372,7.171773193359374,1.9677526733398436,2.1034988891601563,1.8414122137404578,-1.8695763358778623,-8.614950381679389,0
16397,7.248387646484374,2.075491748046875,2.1034988891601563,3.2459923664122137,-0.11385114503816784,-7.5386145038167935,0
16422,7.4183759643554685,2.228720654296875,2.0747684692382813,4.093320610687023,3.5273702290076336,-4.805790076335878,0
16447,7.480625207519531,2.33406552734375,2.050826452636719,4.95591603053435,4.466301526717557,-1.5157137404580152,0
16472,7.411193359374999,2.456169812011719,2.127440905761719,5.391030534351144,3.9014160305343513,1.6064236641221372,0
16497,7.313031091308592,2.4058915771484375,2.184901745605469,5.30706106870229,2.92431679389313,4.1255076335877865,0
16522,7.0616399169921875,2.331671325683594,2.25433359375,5.536068702290076,2.7334770992366413,6.339248091603053,0
16547,6.922776220703125,2.3005467041015626,2.271093005371094,5.780343511450381,4.954851145038168,7.171309160305343,0
16572,6.917987817382811,2.350824938964844,2.359678466796875,5.704007633587786,6.718209923664123,4.766729007633588,0
16597,7.042486303710937,2.413074182128906,2.532060986328125,5.558969465648855,6.0998893129770995,1.163675572519084,0
16622,7.202897814941406,2.422650988769531,2.5847334228515626,5.085687022900763,3.870881679389313,-1.2790725190839694,0
16647,7.219657226562499,2.437016198730469,2.558397204589844,3.612404580152672,1.4968358778625954,-1.530980916030534,0
16672,7.34654991455078,2.379555358886719,2.635011657714844,1.3833969465648854,0.7945458015267176,0.22474427480916026,0
16697,7.313031091308592,2.341248132324219,2.740356530761719,-1.1662213740458016,1.2678282442748092,3.3087137404580154,0
16723,7.25078184814453,2.293364099121094,2.54163779296875,-3.2807251908396946,-0.5413320610687022,6.2476450381679385,0
16748,7.0472747070312485,2.14252939453125,2.5200899780273436,-5.9524809160305345,-2.4497290076335876,7.774362595419847,0
16773,6.9131994140624995,2.113798974609375,2.4147451049804687,-7.387595419847329,-3.457362595419847,6.774362595419847,0
16798,6.7264516845703115,2.0635207397460937,2.237574182128906,-7.37232824427481,-5.396293893129771,4.430851145038168,0
16823,6.795883532714844,2.049155529785156,2.0556148559570313,-6.883778625954199,-3.4039274809160305,0.5377213740458016,0
16848,6.865315380859374,2.0994337646484373,1.9861830078124998,-4.570801526717558,-3.6482022900763353,-3.088232824427481,0
16873,7.0233326904296876,2.075491748046875,2.091527880859375,-1.8608778625954199,-3.121484732824427,-5.599683206106871,0
16898,7.190926806640625,2.286181494140625,1.9933656127929684,0.4979007633587786,-0.6634694656488547,-5.355408396946565,0
16923,7.298665881347655,2.355613342285156,2.1011046875,3.329961832061069,1.0846221374045801,-2.088232824427481,0
16948,7.21247462158203,2.3484307373046875,2.1346235107421876,5.192557251908396,4.573171755725191,2.949935114503817,0
16973,7.13586016845703,2.2694220825195313,2.290246618652344,5.864312977099236,7.901416030534351,6.148408396946564,0
16998,7.02093848876953,2.2526626708984376,2.1920843505859375,6.116221374045801,8.305996183206107,6.843064885496183,0
17023,6.9491124389648435,2.267027880859375,2.3237654418945315,6.452099236641221,7.260194656488549,4.438484732824428,0
17048,6.992208068847655,2.2909698974609376,2.4075625,6.314694656488549,5.0998893129770995,0.4842862595419847,0
17073,7.049668908691406,2.255056872558594,2.5057247680664063,5.192557251908396,2.8861488549618324,-2.43937786259542,0
17098,7.090370336914062,2.2406916625976563,2.5248783813476563,2.8643129770992366,1.4815687022900765,-2.3325076335877863,0
17124,7.1574079833984365,2.2694220825195313,2.6613478759765625,-0.028816793893129744,0.7105763358778627,-0.8363244274809162,0
17149,7.20050361328125,2.245480065917969,2.5943102294921876,-2.7158396946564887,-0.7856068702290075,0.8201641221374045,0
17174,7.176561596679687,2.113798974609375,2.539243591308594,-4.547900763358779,-3.686370229007634,1.5606221374045801,0
17199,7.090370336914062,2.0898569580078123,2.3740436767578124,-5.746374045801527,-5.1214847328244275,1.514820610687023,0
17224,7.150225378417969,2.094645361328125,2.3046118286132815,-5.830343511450382,-5.045148854961832,-0.06533206106870237,0
17249,7.198109411621092,2.06591494140625,2.160959729003906,-4.349427480916031,-6.625301526717557,-1.5080801526717558,0
17274,7.068822521972655,2.046761328125,2.237574182128906,-1.960114503816794,-5.24362213740458,-2.034797709923664,0
17299,7.186138403320311,2.046761328125,2.199266955566406,-0.06698473282442752,-1.0909503816793893,-1.1874694656488547,0
17324,7.054457312011718,2.058732336425781,2.127440905761719,2.3452290076335878,1.657141221374046,0.6522251908396947,0
17349,6.932353027343749,2.1401351928710937,2.208843762207031,3.711641221374046,5.374698473282443,2.5377213740458013,0
17374,7.202897814941406,2.190413427734375,2.2950350219726565,4.100954198473282,9.680041984732824,1.9804694656488548,0
17399,7.296271679687499,2.2119612426757813,2.35010166015625,4.925381679389313,4.389965648854962,1.2171106870229007,0
17424,7.066428320312499,2.1640772094726564,2.4889653564453127,3.757442748091603,1.3288969465648857,1.262912213740458,0
17449,6.939535632324218,2.171259814453125,2.5176957763671877,2.4597328244274808,3.4815687022900765,3.316347328244275,0
17474,6.999390673828125,2.2885756958007812,2.539243591308594,1.5208015267175572,6.389965648854963,3.9270343511450383,0
17499,6.963477648925781,2.307729309082031,2.512907373046875,1.291793893129771,5.680041984732824,2.06443893129771,0
17524,7.042486303710937,2.324488720703125,2.4961479614257813,1.093320610687023,2.6953091603053436,-0.7065534351145039,0
17550,7.0831877319335925,2.2406916625976563,2.4410813232421877,0.5055343511450382,1.1609580152671757,-2.3554083969465647,0
17575,7.171773193359374,2.245480065917969,2.5272725830078127,-0.8150763358778627,1.6647748091603054,-2.286706106870229,0
17600,7.320213696289062,2.1928076293945313,2.5560030029296876,-2.3036259541984734,0.45866793893129776,-0.37830916030534356,0
17625,7.293877478027343,2.2215380493164063,2.50333056640625,-4.0669847328244275,-2.1825534351145035,1.8277977099236642,0
17650,7.162196386718748,2.010848303222656,2.3189770385742188,-5.914312977099237,-5.1291183206106865,3.698026717557252,0
17675,7.076005126953125,1.9438106567382811,2.3141886352539065,-6.273091603053436,-5.961179389312978,3.6445916030534353,0
17700,7.044880505371093,1.8983208251953123,2.0580090576171877,-4.807442748091604,-5.831408396946564,1.293446564885496,0
17725,7.085581933593748,1.9964830932617186,1.9742119995117184,-1.5020992366412216,-6.938278625954197,-1.3401412213740458,0
17750,7.054457312011718,1.962964270019531,2.091527880859375,1.291793893129771,-5.411561068702291,-2.2638053435114505,0
17775,7.183744201660155,2.0323961181640624,2.2495451904296875,3.108587786259542,-0.7169045801526717,-1.2332709923664122,0
17800,7.245993444824218,2.0707033447265624,2.3237654418945315,4.223091603053435,1.5197366412213742,0.7438282442748091,0
17825,7.222051428222655,2.06591494140625,2.3453132568359374,4.97118320610687,2.870881679389313,2.4537519083969466,0
17850,7.05924571533203,1.9964830932617186,2.359678466796875,5.032251908396947,2.5350038167938935,4.117874045801527,0
17875,6.769547314453125,1.9126860351562498,2.4147451049804687,4.001717557251908,3.367064885496183,5.331614503816794,0
17900,6.738422692871093,1.9102918334960937,2.4338987182617187,2.7879770992366413,7.160958015267175,4.759095419847328,0
17925,6.841373364257811,2.0228193115234374,2.4698117431640627,1.9864503816793895,6.382332061068702,1.0644389312977098,0
17951,7.035303698730467,2.312517712402344,2.4482639282226564,0.7956106870229007,1.321263358778626,-3.3630419847328246,0
17976,7.004179077148437,2.3867379638671875,2.3572842651367187,-0.8990458015267176,-1.3504923664122135,-5.492812977099237,0
18001,7.085581933593748,2.4250451904296875,2.3524958618164065,-2.9295801526717558,-1.8085076335877863,-4.60731679389313,0
18026,7.198109411621092,2.4801118286132815,2.266304602050781,-3.6013358778625952,-2.3504923664122135,-2.8744923664122135,0
18051,7.164590588378906,2.2406916625976563,2.242362585449219,-3.830343511450381,-3.1520190839694657,-0.7752557251908397,0
18076,7.126283361816406,2.087462756347656,2.1034988891601563,-4.158587786259543,-1.9688129770992364,-0.26380534351145035,0
18101,7.064034118652343,2.046761328125,2.2303915771484375,-3.120419847328244,-4.839041984732825,-0.8286908396946565,0
18126,7.040092102050781,1.9438106567382811,2.27348720703125,-2.1814885496183205,-6.923011450381679,-1.3019732824427481,0
18151,6.965871850585937,1.8049469604492185,2.2782756103515625,-2.670038167938931,-3.663469465648855,-1.6302175572519082,0
18176,7.085581933593748,1.742697717285156,2.175324938964844,-2.334160305343511,-2.5489656488549617,-3.1340343511450377,0
18201,7.243599243164062,1.7786107421875,2.218420568847656,-1.2730916030534352,-3.663469465648855,-5.576782442748092,0
18226,7.39203974609375,1.9222628417968748,2.23517998046875,-0.25782442748091605,-3.365759541984733,-7.683652671755725,0
18251,7.5524512573242175,1.9869062866210936,2.156171325683594,0.5513358778625954,-2.671103053435114,-7.485179389312977,0
18276,7.633854113769531,2.1090105712890623,2.146594519042969,1.2307251908396948,-1.0909503816793893,-4.60731679389313,0
18301,7.66019033203125,2.2430858642578126,2.2303915771484375,2.162022900763359,0.2678282442748092,-0.1264007633587786,0
18326,7.557239660644531,2.216749645996094,2.2208147705078125,2.7650763358778625,2.6647748091603054,4.827797709923664,0
18352,7.265147058105469,2.21914384765625,2.242362585449219,3.291793893129771,4.802179389312977,8.522454198473282,0
18377,7.044880505371093,2.1161931762695314,2.1442003173828126,2.8490458015267177,5.2143931297709925,9.797263358778626,0
18402,6.855738574218749,2.010848303222656,2.3141886352539065,3.062786259541985,2.9930190839694655,9.232377862595419,0
18427,6.575616979980468,2.0539439331054687,2.271093005371094,1.6047709923664124,4.6571412213740455,7.255278625954198,0
18452,6.542098156738281,2.2311148559570313,2.3908030883789064,0.4444656488549618,7.115156488549619,3.415583969465649,0
18477,6.757576306152344,2.3484307373046875,2.4315045166015627,0.03225190839694653,8.344164122137405,-1.9966297709923664,0
18502,7.1574079833984365,2.4058915771484375,2.4315045166015627,1.711641221374046,1.8403473282442748,-7.256171755725191,0
18527,7.162196386718748,2.312517712402344,2.6661362792968752,2.4597328244274808,-1.0833167938931298,-8.462278625954198,0
18552,7.131071765136718,2.228720654296875,2.5560030029296876,1.5055343511450383,2.702942748091603,-5.324874045801527,0
18577,7.28908907470703,2.2047786376953127,2.725991320800781,-0.6318702290076336,5.931950381679389,-0.2561717557251909,0
18602,7.226839831542969,2.1640772094726564,2.668530480957031,-2.074618320610687,1.3517977099236642,3.3087137404580154,0
18627,7.052063110351562,2.0826743530273437,2.4817827514648436,-4.815076335877863,-0.8237748091603052,4.110240458015267,0
18652,6.8389791625976555,1.8719846069335937,2.3165828369140624,-6.967748091603053,-4.9001106870229005,2.3392480916030536,0
18677,6.716874877929686,1.8432541870117185,2.3189770385742188,-7.830343511450382,-8.258889312977098,-1.4546450381679388,0
18702,6.886863195800781,1.8671962036132812,2.024490234375,-7.02881679389313,-6.953545801526717,-6.233270992366412,0
18727,6.965871850585937,2.001271496582031,1.9861830078124998,-3.402862595419847,-8.365759541984731,-9.676019083969466,0
18753,7.066428320312499,2.113798974609375,1.9933656127929684,0.8490458015267175,-5.556599236641221,-10.401209923664123,0
18778,7.267541259765625,2.3005467041015626,2.050826452636719,4.337595419847328,0.19912595419847334,-8.553881679389313,0
18803,7.313031091308592,2.379555358886719,2.1872959472656253,6.849045801526717,6.054087786259542,-4.5233473282442755,0
18828,7.3824629394531245,2.42983359375,2.213632165527344,8.093320610687023,10.153324427480916,0.3468816793893129,0
18853,7.281906469726562,2.403497375488281,2.3740436767578124,8.925381679389313,9.481568702290076,4.1331412213740455,0
18878,7.123889160156248,2.3723727539062502,2.5200899780273436,8.787977099236642,8.535003816793893,5.9041335877862595,0
18903,7.028121093749999,2.389132165527344,2.6852898925781252,7.413931297709923,10.290729007633589,4.934667938931297,0
18928,7.030515295410155,2.439410400390625,2.742750732421875,5.80324427480916,7.847980916030535,1.8965,0
18953,7.085581933593748,2.4346219970703125,2.663742077636719,3.5818702290076336,1.3059961832061069,-0.8592251908396947,0
18978,6.977842858886718,2.3005467041015626,2.7762695556640624,-0.0364503816793893,-1.0222480916030534,-2.0118969465648853,0
19003,7.210080419921874,2.283787292480469,2.6900782958984375,-3.9219465648854963,-1.777973282442748,-2.0958664122137405,0
19028,7.210080419921874,2.235903259277344,2.7283855224609375,-5.135687022900764,-7.632935114503816,-1.2638053435114505,0
19053,7.257964453124999,2.1688656127929686,2.663742077636719,-6.937213740458016,-8.724538167938931,0.6674923664122137,0
19078,7.178955798339843,2.12337578125,2.5081189697265627,-8.097519083969466,-8.07568320610687,3.1713091603053436,0
19103,7.0831877319335925,2.0802801513671874,2.4147451049804687,-7.967748091603054,-8.839041984732823,4.079706106870229,0
19129,7.011361682128906,2.018030908203125,2.261516198730469,-6.822709923664123,-6.930645038167938,2.6674923664122137,0
19154,6.925170422363281,2.046761328125,2.2208147705078125,-3.7921755725190835,-5.869576335877863,0.23237786259541982,0
19179,6.917987817382811,2.0707033447265624,2.1968727539062503,-2.005916030534351,-2.8466755725190835,-1.6378511450381676,0
19204,6.9874196655273435,2.094645361328125,2.1729307373046876,-0.9524809160305344,0.2220267175572519,-1.7981564885496182,0
19229,7.104735546874999,2.1592888061523436,2.2399683837890625,-0.7921755725190839,2.91668320610687,-1.3401412213740458,0
19254,7.143042773437499,2.245480065917969,2.2686988037109375,0.2765267175572519,2.1838587786259542,-0.47754580152671766,0
19279,7.107129748535155,2.235903259277344,2.4099567016601564,-0.1509541984732825,3.6189732824427483,1.4995534351145037,0
19304,7.076005126953125,2.245480065917969,2.3644668701171874,-1.3112595419847328,3.367064885496183,3.583522900763359,0
19329,6.872497985839844,2.25745107421875,2.417139306640625,-2.7463740458015264,2.4052328244274808,4.3545152671755725,0
19354,6.855738574218749,2.2119612426757813,2.247150988769531,-3.608969465648855,2.557904580152672,1.8888664122137404,0
19379,6.9706602539062485,2.264633679199219,2.23517998046875,-3.967748091603053,1.405232824427481,-2.3935763358778623,0
19404,7.241205041503906,2.3388539306640626,2.3165828369140624,-4.021183206106871,0.7945458015267176,-7.248538167938932,0
19429,7.348944116210936,2.3915263671875002,2.3548900634765624,-4.204389312977099,-1.9153778625954199,-8.584416030534351,0
19454,7.327396301269531,2.317306115722656,2.31179443359375,-5.02881679389313,-2.9764465648854963,-5.790522900763359,0
19480,7.119100756835937,2.2885756958007812,2.3955914916992187,-5.105152671755725,-5.022248091603053,-0.27907251908396946,0
19505,6.958689245605467,2.006059899902344,2.302217626953125,-7.525,-1.5565992366412211,4.278179389312977,0
19530,6.956295043945311,1.8624078002929687,2.3070060302734374,-6.647137404580153,-4.304690839694656,3.949935114503817,0
19555,6.793489331054686,1.6373528442382812,2.27348720703125,-5.616603053435115,-7.205454198473282,-0.637851145038168,0
19580,6.891651599121093,1.539190576171875,1.9837888061523434,-5.883778625954199,-5.152019083969465,-6.599683206106871,0
19605,7.255570251464843,1.8145237670898435,1.7802816650390623,-4.5173664122137405,-6.029881679389312,-11.813423664122137,0
19630,7.502173022460936,2.1497119995117187,1.9478757812499998,-1.1356870229007634,-8.40392748091603,-13.240904580152671,0
19655,7.600335290527343,2.3867379638671875,1.9311163696289062,0.5895038167938931,-4.464996183206107,-9.340141221374045,0
19680,7.597941088867187,2.6285523315429686,1.8664729248046874,2.948282442748092,-2.877209923664122,-2.218003816793893,0
19705,7.483019409179687,2.6261581298828127,1.9047801513671874,3.528435114503817,3.389965648854962,4.423217557251908,0
19730,7.351338317871092,2.573485693359375,1.9047801513671874,5.620038167938931,5.855614503816794,9.491919847328244,0
19755,7.0999471435546875,2.5327842651367187,1.883232336425781,8.597137404580153,7.275461832061069,11.88123282442748,0
19780,6.783912524414062,2.374766955566406,2.0220960327148436,11.200190839694656,8.374698473282443,12.094973282442748,0
19806,6.731240087890625,2.2526626708984376,2.2256031738281252,12.49026717557252,10.008286259541986,9.339248091603054,0
19831,6.831796557617186,2.2239322509765627,2.4027740966796873,12.032251908396946,10.92431679389313,4.331614503816794,0
19856,6.9131994140624995,2.286181494140625,2.4003798950195314,10.475,7.031187022900763,-0.5691488549618321,0
19881,7.004179077148437,2.2526626708984376,2.5943102294921876,7.795610687022901,0.8021793893129772,-3.0653320610687023,0
19906,7.114312353515625,2.2143554443359377,2.5440319946289063,3.7345419847328247,0.35943129770992366,-3.004263358778626,0
19931,7.25078184814453,2.255056872558594,2.668530480957031,-0.021183206106870245,-2.2665229007633587,-1.5615152671755723,0
19956,7.31542529296875,2.226326452636719,2.4913595581054686,-2.120419847328244,-7.113851145038167,0.5071870229007633,0
19981,7.193321008300781,2.1353467895507814,2.4913595581054686,-3.975381679389313,-7.510797709923663,2.1178740458015266,0
20006,7.104735546874999,2.0826743530273437,2.4410813232421877,-3.5708015267175575,-6.411561068702291,2.9346679389312977,0
20031,6.999390673828125,2.0850685546875,2.280669812011719,-1.7082061068702288,-3.258889312977099,2.507187022900763,0
20056,7.004179077148437,1.9964830932617186,2.23517998046875,0.14675572519083968,1.7334770992366413,0.9499351145038167,0
20081,7.166984790039062,2.058732336425781,2.3548900634765624,2.062786259541985,3.6189732824427483,-1.3554083969465647,0
20106,7.281906469726562,2.264633679199219,2.3189770385742188,3.589503816793893,2.122790076335878,-2.034797709923664,0
20131,7.248387646484374,2.1975960327148436,2.4099567016601564,2.6505725190839695,3.7105763358778625,-0.3096068702290077,0
20156,7.17416739501953,2.0922511596679687,2.417139306640625,1.375763358778626,4.7640114503816795,3.5911564885496183,0
20181,6.999390673828125,2.0994337646484373,2.5105131713867186,0.32996183206106866,5.611339694656488,6.499553435114503,0
20207,7.05924571533203,1.991694689941406,2.4410813232421877,-0.7387404580152671,7.93958396946565,6.339248091603053,0
20232,7.133465966796874,2.245480065917969,2.3716494750976564,-0.4333969465648855,3.535003816793893,3.430851145038168,0
20257,7.095158740234374,2.1880192260742186,2.4865711547851563,-0.8379770992366412,0.04645419847328247,0.12550763358778627,0
20282,7.05924571533203,2.264633679199219,2.4315045166015627,-2.6547709923664122,-0.6024007633587787,-0.9660954198473283,0
20307,7.087976135253906,2.2311148559570313,2.3836204833984374,-4.601335877862596,-0.9535458015267175,-0.11876717557251915,0
20332,7.030515295410155,2.267027880859375,2.4243219116210937,-5.608969465648856,-1.07568320610687,0.6369580152671755,0
20357,7.104735546874999,2.1305583862304687,2.3357364501953124,-5.921946564885497,-1.5184312977099235,1.1026068702290077,0
20382,7.011361682128906,2.049155529785156,2.227997375488281,-5.9524809160305345,-2.8314083969465647,1.3239809160305342,0
20407,6.985025463867188,1.970146875,2.266304602050781,-5.547900763358779,-3.3123244274809163,1.0644389312977098,0
20432,6.946718237304688,1.9605700683593748,2.213632165527344,-5.36469465648855,-2.396293893129771,0.4842862595419847,0
20457,6.929958825683593,1.9198686401367187,2.098710485839844,-4.70820610687023,-2.41156106870229,-0.9813625954198474,0
20482,6.953900842285155,1.982117883300781,2.0364612426757813,-3.219656488549618,-3.991713740458015,-2.966095419847328,0
20507,6.925170422363281,1.9438106567382811,1.9598467895507812,-1.6318702290076335,-3.3886603053435116,-4.515713740458016,0
20532,6.999390673828125,1.9222628417968748,2.00533662109375,0.4444656488549618,-0.4955305343511449,-4.653118320610687,0
20557,7.20050361328125,2.006059899902344,2.0292786376953127,3.3146946564885496,1.5502709923664124,-4.240904580152672,0
20582,7.193321008300781,2.0850685546875,2.148988720703125,5.787977099236641,2.8327137404580154,-2.3783091603053435,0
20607,7.23881083984375,2.1664714111328127,2.1825075439453125,6.917748091603053,7.008286259541984,0.09497328244274805,0
20633,7.255570251464843,2.1449235961914064,2.3716494750976564,7.421564885496183,5.794545801526718,1.8965,0
20658,7.255570251464843,2.226326452636719,2.512907373046875,6.589503816793893,4.138057251908397,2.1713091603053436,0
20683,7.245993444824218,2.29575830078125,2.627829052734375,4.581870229007634,3.8098129770992366,1.675125954198473,0
20708,7.1957152099609365,2.264633679199219,2.6805014892578125,2.826145038167939,1.5502709923664124,0.995736641221374,0
20733,7.085581933593748,2.18083662109375,2.682895690917969,1.543702290076336,0.9701183206106871,0.20947709923664115,0
20758,7.126283361816406,2.21914384765625,2.6565594726562503,-0.44103053435114503,0.75637786259542,-0.49281297709923677,0
20783,7.073610925292969,2.1568946044921877,2.654165270996094,-2.540267175572519,-0.5947671755725188,-0.5462480916030535,0
20808,7.0089674804687485,2.0850685546875,2.646982666015625,-4.593702290076336,-3.006980916030534,-0.1264007633587786,0
20833,7.104735546874999,2.1305583862304687,2.4626291381835936,-6.563167938931298,-3.7321717557251906,0.0873396946564885,0
20858,7.054457312011718,2.077885949707031,2.4003798950195314,-7.1738549618320615,-5.167286259541985,-0.1264007633587786,0
20883,6.910805212402344,1.972541076660156,2.27348720703125,-7.074618320610687,-4.793240458015267,-0.6302175572519085,0
20908,6.946718237304688,2.037184521484375,2.184901745605469,-6.097519083969466,-2.327591603053435,-2.1951030534351146,0
20933,7.0616399169921875,1.982117883300781,2.069980065917969,-3.944847328244275,-2.0375152671755723,-3.8363244274809163,0
20958,7.138254370117187,1.9845120849609375,2.060403259277344,-1.0822519083969464,-0.9993473282442746,-5.3172404580152675,0
20983,7.1574079833984365,2.0730975463867187,2.146594519042969,0.9711832061068701,1.8327137404580154,-4.332507633587786,0
21008,7.23881083984375,2.1281641845703123,2.1777191406250003,2.444465648854962,4.672408396946565,-1.4622786259541982,0
21033,7.327396301269531,2.2047786376953127,2.227997375488281,2.826145038167939,6.374698473282443,0.995736641221374,0
21059,7.243599243164062,2.3149119140625,2.3453132568359374,3.360496183206107,3.8861488549618324,2.5987900763358778,0
21084,7.0233326904296876,2.264633679199219,2.4291103149414064,2.589503816793893,3.855614503816794,3.0262709923664124,0
21109,6.841373364257811,2.1257699829101564,2.46502333984375,2.1467557251908396,3.5655381679389313,2.5377213740458013,0
21134,6.776729919433593,2.1568946044921877,2.5296667846679686,1.1696564885496183,4.847980916030535,0.5224541984732824,0
21159,6.901228405761718,2.0611265380859374,2.558397204589844,0.32996183206106866,3.9624847328244277,-2.966095419847328,0
21184,7.25078184814453,2.1473177978515627,2.6134638427734376,-1.2578244274809163,0.8250801526717558,-6.141667938931298,0
21209,7.39203974609375,2.274210485839844,2.635011657714844,-4.219656488549619,-3.0756832061068704,-6.8668587786259545,0
21234,7.3082426879882805,2.1760482177734377,2.6709246826171875,-7.1738549618320615,-6.281790076335877,-3.332507633587786,0
21259,7.190926806640625,2.0922511596679687,2.589521826171875,-9.525,-6.480263358778625,1.4308511450381678,0
21284,7.087976135253906,2.0539439331054687,2.3836204833984374,-10.891412213740459,-3.9459122137404576,3.965202290076336,0
21309,6.992208068847655,2.037184521484375,2.146594519042969,-10.257824427480916,-3.777973282442748,2.2323778625954196,0
21334,7.032909497070311,1.9485990600585936,1.9071743530273435,-7.425763358778626,-5.258889312977098,-2.370675572519084,0
21359,6.929958825683593,1.9940888916015624,1.911962756347656,-4.456297709923665,-4.556599236641221,-5.996629770992366,0
21384,7.05924571533203,2.015636706542969,1.873655529785156,-0.9524809160305344,-0.48789694656488547,-6.874492366412214,0
21409,7.248387646484374,2.1066163696289064,1.9885772094726561,2.711641221374046,3.825080152671756,-5.134034351145038,0
21434,7.351338317871092,2.283787292480469,2.160959729003906,5.551335877862595,5.702942748091603,-1.469912213740458,0
21460,7.255570251464843,2.2694220825195313,2.12025830078125,6.29942748091603,7.298362595419848,2.797263358778626,0
21485,7.301060083007811,2.305335107421875,2.4195335083007814,5.917748091603053,6.817446564885497,5.8965,0
21510,7.066428320312499,2.3915263671875002,2.4506581298828127,5.284160305343511,6.771645038167939,6.3621488549618315,0
21535,6.953900842285155,2.29575830078125,2.5655798095703126,4.757442748091603,5.290729007633588,4.522454198473282,0
21560,6.860526977539062,2.427439392089844,2.5655798095703126,3.665839694656489,3.3594312977099237,1.2247442748091601,0
21585,6.937141430664062,2.4154683837890625,2.7140203125,2.2917938931297708,1.9090496183206107,-2.1951030534351146,0
21610,6.996996472167967,2.3388539306640626,2.764298547363281,1.192557251908397,-0.6329351145038169,-3.2714389312977095,0
21635,6.999390673828125,2.33406552734375,2.761904345703125,-1.1204198473282445,-0.3504923664122137,-2.4241106870229006,0
21660,7.054457312011718,2.247874267578125,2.7092319091796875,-2.6318702290076335,-0.6482022900763358,-0.23327099236641236,0
21685,6.781518322753905,2.113798974609375,2.630223254394531,-3.9830152671755727,-1.3352251908396946,2.1713091603053436,0
21710,6.728845886230467,2.049155529785156,2.5368493896484376,-5.807442748091604,1.4205,1.797263358778626,0
21735,6.850950170898437,2.02760771484375,2.290246618652344,-5.326526717557252,-1.2665229007633587,-1.9126603053435112,0
21760,6.958689245605467,2.077885949707031,2.194478552246094,-3.3036259541984734,-4.610034351145037,-7.027164122137405,0
21785,7.040092102050781,2.10422216796875,2.189690148925781,-1.4257633587786258,-3.884843511450381,-9.370675572519085,0
21810,7.255570251464843,2.1640772094726564,2.2016611572265625,0.8795801526717557,-0.6558358778625952,-7.859225190839695,0
21835,7.27711806640625,2.3771611572265625,2.2112379638671875,2.9406488549618324,2.611339694656489,-3.8134236641221375,0
21860,7.360915124511718,2.3532191406250003,2.42671611328125,4.391030534351145,4.75637786259542,0.5682557251908397,0
21886,7.243599243164062,2.374766955566406,2.4195335083007814,5.116221374045801,5.527370229007634,3.8965,0
21911,7.111918151855469,2.326882922363281,2.5368493896484376,4.841412213740457,5.58080534351145,5.71329389312977,0
21936,6.98263126220703,2.25745107421875,2.678107287597656,4.261259541984733,5.863248091603053,5.446118320610687,0
21961,7.0999471435546875,2.365190148925781,2.6326174560546876,3.726908396946565,5.122790076335878,3.301080152671756,0
21986,7.064034118652343,2.379555358886719,2.80978837890625,2.7192748091603054,3.825080152671756,0.9346679389312976,0
22011,7.0831877319335925,2.4441988037109375,2.8935854370117187,1.0169847328244275,2.6800419847328243,-0.5157137404580153,0
22036,7.17416739501953,2.365190148925781,2.8792202270507814,-1.2501908396946564,2.061721374045802,-0.29433969465648857,0
22061,7.188532604980469,2.3484307373046875,2.9271042602539064,-3.525,0.47393511450381687,0.7514618320610686,0
22086,7.085581933593748,2.267027880859375,2.790634765625,-5.990648854961832,-0.24362213740458016,2.5453549618320612,0
22111,6.9515066406249995,2.2215380493164063,2.9127390502929686,-8.005916030534351,-2.006980916030534,4.110240458015267,0
22136,6.886863195800781,2.1664714111328127,2.620646447753906,-10.35706106870229,-2.6253015267175575,3.965202290076336,0
22161,6.860526977539062,2.06591494140625,2.5368493896484376,-11.288358778625955,-4.3428587786259545,1.9804694656488548,0
22186,6.781518322753905,2.0252135131835938,2.35010166015625,-10.639503816793894,-5.472629770992366,-0.9584618320610688,0
22211,6.750393701171874,1.9414164550781248,2.3333422485351565,-9.066984732824428,-4.610034351145037,-2.8744923664122135,0
22236,6.841373364257811,1.98930048828125,2.27348720703125,-6.166221374045802,-2.1825534351145035,-4.172202290076336,0
22261,6.834190759277344,2.0228193115234374,2.194478552246094,-3.089885496183206,0.8556145038167939,-3.645484732824427,0
22286,6.9706602539062485,2.0036656982421874,2.2208147705078125,-1.0517175572519086,5.847980916030535,-2.630217557251908,0
22311,7.226839831542969,2.1592888061523436,2.3333422485351565,0.41393129770992365,6.710576335877862,-2.27143893129771,0
22337,7.2340224365234365,2.190413427734375,2.3812262817382814,1.8566793893129772,2.6724083969465653,-2.156935114503817,0
22362,7.119100756835937,2.06591494140625,2.4626291381835936,1.2994274809160307,2.4815687022900765,-0.7370877862595421,0
22387,6.98263126220703,2.1401351928710937,2.4338987182617187,0.6505725190839694,3.542637404580153,1.094973282442748,0
22412,7.001784875488281,2.1161931762695314,2.4961479614257813,0.5818702290076335,3.008286259541985,1.2247442748091601,0
22437,6.98263126220703,2.1497119995117187,2.4195335083007814,0.6887404580152672,2.4281335877862595,-0.469912213740458,0
22462,7.049668908691406,2.2694220825195313,2.4099567016601564,1.039885496183206,0.5960725190839695,-3.004263358778626,0
22487,7.071216723632811,2.336459729003906,2.484176953125,1.64293893129771,-1.5336984732824428,-4.515713740458016,0
22512,7.085581933593748,2.307729309082031,2.5344551879882813,1.4520992366412213,-0.17491984732824428,-3.4928129770992364,0
22537,7.193321008300781,2.2694220825195313,2.658953674316406,0.9635496183206107,1.4434007633587786,-1.4241106870229006,0
22562,7.207686218261718,2.2239322509765627,2.704443505859375,0.391030534351145,0.023553435114503918,0.4842862595419847,0
22587,7.035303698730467,2.1209815795898437,2.663742077636719,-0.7005725190839694,-1.5489656488549617,1.8048969465648854,0
22612,6.894045800781249,2.015636706542969,2.548820397949219,-2.456297709923664,-0.3352251908396946,0.995736641221374,0
22637,6.94432403564453,2.010848303222656,2.474600146484375,-2.18912213740458,-3.358125954198473,-1.5080801526717558,0
22662,6.90601680908203,1.9462048583984373,2.35010166015625,-1.4868320610687022,-3.678736641221374,-4.134034351145038,0
22687,7.056851513671874,1.9198686401367187,2.290246618652344,0.047519083969465636,-1.2741564885496182,-5.843958015267176,0
22712,7.265147058105469,2.1664714111328127,2.330948046875,2.612404580152672,-0.5336984732824426,-5.576782442748092,0
22738,7.25078184814453,2.1952018310546877,2.3357364501953124,4.787977099236641,0.6418740458015268,-2.8439580152671753,0
22763,7.327396301269531,2.326882922363281,2.3764378784179687,5.673473282442748,3.7869122137404583,1.0720725190839695,0
22788,7.267541259765625,2.422650988769531,2.4889653564453127,6.910114503816794,3.2830954198473283,4.316347328244275,0
22813,7.080793530273437,2.4346219970703125,2.4530523315429686,7.383396946564885,3.0922557251908396,6.415583969465649,0
22838,6.819825549316406,2.44898720703125,2.512907373046875,7.421564885496183,2.1914923664122137,7.262912213740457,0
22863,6.654625634765623,2.4681408203125,2.702049304199219,6.223091603053435,5.794545801526718,5.461385496183206,0
22888,6.841373364257811,2.477717626953125,2.7188087158203125,4.5971374045801525,9.4205,1.2781793893129771,0
22913,7.013755883789062,2.6333407348632814,2.77148115234375,4.337595419847328,6.825080152671756,-1.988996183206107,0
22938,7.006573278808593,2.5686972900390623,3.0037187133789063,4.5971374045801525,-0.7245381679389311,-2.912660305343511,0
22963,6.805460339355467,2.384343762207031,3.106669384765625,2.5360687022900765,-1.07568320610687,-1.0042633587786258,0
22988,6.740816894531249,2.247874267578125,2.9175274536132814,-0.4333969465648855,3.176225190839695,1.3239809160305342,0
23013,7.011361682128906,2.1473177978515627,2.8816144287109373,-1.9295801526717558,0.5350038167938932,0.6216908396946564,0
23038,7.087976135253906,2.199990234375,2.9294984619140627,-2.8685114503816793,-2.5031641221374046,-2.5080801526717558,0
23063,7.190926806640625,2.2047786376953127,2.9366810668945313,-3.845610687022901,-5.442095419847329,-5.28670610687023,0
23088,7.248387646484374,2.2766046875,2.8744318237304687,-3.8074427480916033,-8.06041603053435,-5.393576335877863,0
23113,7.102341345214843,2.2766046875,2.915133251953125,-4.441030534351145,-4.411561068702291,-2.538614503816794,0
23138,7.066428320312499,2.226326452636719,2.8217593872070315,-3.425763358778626,-0.8695763358778623,1.247645038167939,0
23164,6.999390673828125,2.1664714111328127,2.9127390502929686,-1.7769083969465647,2.870881679389313,3.346881679389313,0
23189,6.884468994140625,2.2766046875,2.8049999755859374,-0.7387404580152671,5.93958396946565,3.8583320610687024,0
23214,6.781518322753905,2.286181494140625,2.7882405639648438,-1.0440839694656487,6.023553435114504,3.40031679389313,0
23239,6.855738574218749,2.283787292480469,2.86724921875,-1.7005725190839693,5.305996183206107,1.5682557251908396,0
23264,6.846161767578125,2.2981525024414062,2.8696434204101564,-2.35706106870229,3.1227900763358782,-0.6912862595419847,0
23289,6.853344372558593,2.3484307373046875,2.8528840087890623,-3.647137404580153,2.634240458015267,-1.59968320610687,0
23314,6.9515066406249995,2.3915263671875002,2.8049999755859374,-4.929580152671756,1.504469465648855,-2.057698473282443,0
23339,7.0233326904296876,2.441804602050781,2.84809560546875,-5.570801526717558,0.8785152671755726,-2.43937786259542,0
23364,7.2316282348632805,2.4825060302734374,2.6134638427734376,-6.486832061068703,1.939583969465649,-3.004263358778626,0
23389,7.260358654785155,2.48729443359375,2.56079140625,-6.074618320610687,-2.6253015267175575,-2.4088435114503817,0
23414,6.992208068847655,2.2766046875,2.5823392211914062,-6.166221374045802,-6.136751908396947,-0.21037022900763358,0
23439,6.922776220703125,2.0802801513671874,2.4506581298828127,-7.822709923664123,-2.0680496183206105,1.8659656488549619,0
23464,7.056851513671874,2.0826743530273437,2.455446533203125,-7.830343511450382,-1.7856068702290075,1.9346679389312977,0
23489,7.018544287109374,1.8719846069335937,2.175324938964844,-7.181488549618321,-4.808507633587785,-0.34777480916030534,0
23514,7.0616399169921875,1.7786107421875,2.0484322509765627,-7.128053435114504,-5.098583969465649,-3.1035,0
23539,7.222051428222655,1.8217063720703124,1.864078723144531,-3.0364503816793893,-6.762706106870228,-5.0958664122137405,0
23565,7.119100756835937,1.9078976318359373,1.9335105712890623,3.1849236641221377,-5.312324427480917,-4.988996183206107,0
23590,7.401616552734374,2.058732336425781,2.089133679199219,8.475,5.023553435114504,-2.93556106870229,0
23615,7.471048400878906,2.1497119995117187,2.27348720703125,9.894847328244275,17.298362595419846,1.1560419847328243,0
23640,7.573999072265624,2.6046103149414064,2.4865711547851563,12.46736641221374,8.779278625954198,6.255278625954198,0
23665,7.265147058105469,2.427439392089844,2.7930289672851565,11.055152671755724,4.886148854961832,12.22474427480916,0
23690,6.927564624023437,2.331671325683594,2.9223158569335936,8.284160305343512,7.58080534351145,15.70566030534351,0
23715,6.932353027343749,2.2502684692382813,3.15455341796875,6.765076335877862,10.298362595419848,14.8965,0
23740,6.9515066406249995,2.2526626708984376,3.240744677734375,6.154389312977099,8.382332061068702,11.453751908396946,0
23765,7.030515295410155,2.322094519042969,3.2646866943359374,6.1620229007633585,4.1075229007633585,7.698026717557251,0
23790,6.992208068847655,2.209567041015625,3.3724257690429686,4.29942748091603,3.2296603053435113,4.774362595419847,0
23815,6.879680590820311,2.02760771484375,3.2670808959960937,1.8948473282442748,3.3365305343511453,5.0262709923664115,0
23840,6.894045800781249,2.068309143066406,3.1018809814453125,-0.807442748091603,6.000652671755725,6.774362595419847,0
23865,6.86770958251953,2.0611265380859374,3.0444201416015626,-2.173854961832061,4.573171755725191,8.54535496183206,0
23891,6.79109512939453,1.8959266235351562,2.8744318237304687,-2.7005725190839693,2.5350038167938935,8.690393129770992,0
23916,6.7647589111328115,1.828888977050781,2.725991320800781,-3.120419847328244,2.153324427480916,7.453751908396947,0
23941,6.798277734375,1.8408599853515624,2.4386871215820314,-3.2120229007633587,-2.8390419847328245,5.72856106870229,0
23966,6.649837231445312,1.8480425903320312,2.4482639282226564,-3.5937022900763353,-7.41919465648855,4.369782442748091,0
23991,6.501396728515624,1.8049469604492185,2.3620726684570315,-3.2654580152671753,-6.785606870229007,3.0415381679389313,0
24016,6.661808239746093,1.819312170410156,2.208843762207031,-1.9448473282442746,-5.006980916030534,0.5835229007633587,0
24041,6.786306726074218,1.8025527587890624,2.4195335083007814,0.9711832061068701,-5.434461832061068,-2.2943396946564887,0
24066,6.757576306152344,1.771428137207031,2.4769943481445313,4.284160305343511,-7.678736641221374,-3.5691488549618318,0
24091,6.491819921875,1.6972078857421873,2.5248783813476563,5.7116412213740455,-7.610034351145037,-1.8439580152671753,0
24116,6.503790930175781,1.558344189453125,2.6565594726562503,4.978816793893129,-1.014614503816794,-0.29433969465648857,0
24141,6.5564633666992185,1.6493238525390623,2.8504898071289064,5.5971374045801525,3.1838587786259542,-1.3248740458015265,0
24166,6.692932861328125,1.6541122558593748,2.9103448486328127,7.413931297709923,5.8785152671755725,-5.233270992366412,0
24191,7.092764538574218,1.8695904052734373,3.2072258544921874,7.765076335877862,11.92431679389313,-10.477545801526718,0
24216,7.523720837402343,2.1640772094726564,3.4442518188476563,6.261259541984733,14.832713740458015,-13.462278625954198,0
24241,7.897216296386717,2.67883056640625,3.2958113159179687,1.543702290076336,15.962484732824429,-13.050064885496184,0
24266,8.067204614257811,2.4346219970703125,3.540019885253906,-0.6242366412213741,3.107522900763359,-9.019530534351146,0
24292,7.73680478515625,2.3915263671875002,3.3772141723632814,-5.349427480916031,1.5197366412213742,-3.301973282442748,0
24317,7.612306298828124,2.2909698974609376,3.1306114013671875,-9.471564885496184,0.8250801526717558,2.8201641221374047,0
24342,7.2316282348632805,2.077885949707031,2.8648550170898437,-9.04408396946565,-5.1214847328244275,8.934667938931298,0
24367,6.841373364257811,1.7019962890624998,2.639800061035156,-8.128053435114504,-1.9306450381679388,11.079706106870228,0
24392,6.82940235595703,1.6828426757812498,2.5272725830078127,-6.593702290076336,0.8632480916030535,9.369782442748091,0
24417,6.925170422363281,1.7091788940429686,2.5296667846679686,-5.341793893129771,-0.7856068702290075,4.552988549618321,0
24442,6.884468994140625,1.7259383056640625,2.397985693359375,-3.334160305343511,-8.190187022900762,-0.385942748091603,0
24467,6.700115466308593,1.740303515625,2.577550817871094,-1.8761450381679388,-12.182553435114503,-1.8515916030534352,0
24492,6.6833560546875,1.7666397338867186,2.551214599609375,-1.5555343511450381,-6.3504923664122135,-1.0500648854961834,0
24517,6.7623647094726556,1.781004943847656,2.4410813232421877,1.1467557251908396,-5.167286259541985,0.8506984732824427,0
24542,6.635472021484374,1.8264947753906249,2.4865711547851563,3.9330152671755725,-5.777973282442748,3.659858778625954,0
24567,6.527732946777342,2.001271496582031,2.6805014892578125,4.917748091603053,0.3899656488549619,4.949935114503816,0
24592,6.48463731689453,2.087462756347656,2.6900782958984375,5.833778625954198,4.328896946564885,4.05680534351145,0
24617,6.604347399902344,2.1018279663085937,2.706837707519531,6.352862595419847,0.6571412213740458,0.1713091603053435,0
24642,6.501396728515624,1.9055034301757812,2.7140203125,5.871946564885496,-2.327591603053435,-4.347774809160306,0
24667,6.884468994140625,1.9366280517578123,3.0611795532226562,5.070419847328244,6.069354961832062,-9.523347328244276,0
24693,7.688920751953124,2.432227795410156,3.3221475341796873,5.650572519083969,16.672408396946565,-14.7828893129771,0
24718,7.981013354492187,2.630946533203125,3.4370692138671877,9.268893129770992,5.931950381679389,-14.363041984732824,0
24743,7.593152685546873,2.44898720703125,3.669306774902344,5.787977099236641,2.657141221374046,-5.958461832061069,0
24768,7.23881083984375,2.1688656127929686,3.659729968261719,-0.7463740458015268,5.25256106870229,5.698026717557251,0
24793,7.25078184814453,2.190413427734375,3.46101123046875,-8.082251908396946,8.573171755725191,11.469019083969465,0
24818,7.133465966796874,2.018030908203125,3.027660729980469,-11.616603053435115,-1.7398053435114504,10.041538167938931,0
24843,6.59955899658203,1.781004943847656,2.7475391357421874,-10.570801526717558,-16.709270992366413,5.583522900763358,0
24868,6.31225479736328,1.4266630981445312,2.615858044433594,-9.899045801526718,-12.342858778625954,0.8354312977099236,0
24893,6.573222778320312,1.6876310791015623,2.474600146484375,-8.517366412213741,-2.4039274809160305,-4.1035,0
24918,7.056851513671874,1.8432541870117185,2.3644668701171874,-3.7921755725190835,-4.495530534351145,-9.149301526717558,0
24943,7.284300671386718,2.0084541015625,2.4147451049804687,1.4291984732824428,-8.327591603053435,-10.187469465648855,0
24968,7.281906469726562,2.286181494140625,2.730779724121094,4.116221374045802,-4.869576335877863,-5.76762213740458,0
24993,7.052063110351562,2.2502684692382813,2.9007680419921877,4.986450381679389,0.8479809160305345,2.7209274809160306,0
