t_ms,ax,ay,az,gx,gy,gz,label
0,-10.751220434570314,-2.016198889160156,-4.73673525390625,0.3375954198473282,-1.7321717557251906,-0.20273664122137414,0
25,-10.803892871093751,-2.0209872924804686,-4.777436682128906,0.13912213740458013,-0.44209541984732814,-0.13403435114503826,0
50,-10.729672619628907,-1.9132482177734376,-4.739129455566406,-0.38759541984732826,1.4510343511450383,-0.08059923664122137,0
75,-10.717701611328124,-2.0114104858398436,-4.6553323974609375,-0.28835877862595427,0.75637786259542,-0.050064885496183265,0
100,-10.700942199707033,-1.9994394775390625,-4.705610632324219,0.45973282442748087,-1.6176679389312976,-0.034797709923664155,0
125,-10.767979846191405,-2.044929309082031,-4.605054162597656,0.41393129770992365,-1.6634694656488547,-0.11876717557251915,0
150,-10.782345056152344,-2.0305640991210936,-4.650543994140625,-0.021183206106870245,0.2601946564885498,-0.1416679389312977,0
175,-10.767979846191405,-2.016198889160156,-4.6194193725585935,-0.32652671755725193,1.2601946564885498,-0.011896946564885491,0
200,-10.777556652832033,-1.9754974609374998,-4.652938195800782,-0.2807251908396947,1.275461832061069,-0.2409045801526718,0
225,-10.736855224609375,-2.0114104858398436,-4.7295526489257815,-0.06698473282442752,0.7487442748091604,-0.2867061068702291,0
250,-10.782345056152344,-1.9611322509765625,-4.576323742675781,-0.3112595419847328,0.5197366412213742,-0.30197328244274824,0
275,-10.787133459472656,-1.9994394775390625,-4.624207775878906,-0.3799618320610687,1.1685916030534353,-0.07296564885496182,0
300,-10.75361463623047,-2.0329583007812495,-4.691245422363282,-0.17385496183206106,0.42813358778625965,-0.1569351145038168,0
325,-10.751220434570314,-2.0233814941406245,-4.734341052246093,0.5131679389312976,-1.1138511450381676,-0.11113358778625948,0
350,-10.748826232910154,-1.9994394775390625,-4.614630969238282,0.7269083969465648,-2.0222480916030534,-0.21800381679389325,0
375,-10.803892871093751,-2.0281698974609372,-4.669697607421875,0.30706106870229005,-1.1443854961832058,-0.18746946564885503,0
400,-10.760797241210938,-1.9395844360351562,-4.624207775878906,-0.18912213740458017,0.5273702290076336,-0.14930152671755736,0
426,-10.732066821289063,-1.9802858642578125,-4.703216430664063,-0.2807251908396947,1.3899656488549619,-0.09586641221374048,0
451,-10.705730603027344,-2.0377467041015622,-4.6409671875,-0.2501908396946565,1.038820610687023,-0.1264007633587786,0
476,-10.698547998046873,-2.044929309082031,-4.597871557617188,-0.2501908396946565,0.8021793893129772,-0.04243129770992371,0
501,-10.839805895996093,-1.9922568725585938,-4.62181357421875,-0.2807251908396947,1.0846221374045801,-0.09586641221374048,0
526,-10.770374047851561,-1.9060656127929685,-4.669697607421875,-0.15858778625954195,0.8403473282442749,-0.21037022900763358,0
551,-10.767979846191405,-2.0233814941406245,-4.7127932373046875,0.016984732824427473,-0.3352251908396946,-0.1569351145038168,0
576,-10.775162451171873,-2.006622082519531,-4.633784582519532,0.3604961832061069,-1.2130877862595417,-0.24853816793893124,0
601,-10.669817578124999,-1.9778916625976561,-4.691245422363282,0.37576335877862593,-1.3581259541984734,-0.1416679389312977,0
626,-10.7847392578125,-2.0185930908203122,-4.607448364257812,0.13912213740458013,-0.5413320610687022,-0.06533206106870237,0
651,-10.782345056152344,-1.9970452758789061,-4.566746936035156,-0.12041984732824429,0.237293893129771,-0.3401412213740459,0
676,-10.772768249511717,-1.9946510742187498,-4.6553323974609375,-0.3494274809160306,0.7869122137404582,-0.30197328244274824,0
701,-10.758403039550782,-1.9707090576171875,-4.5428049194335935,-0.18148854961832062,1.3136297709923666,-0.1264007633587786,0
726,-10.72009581298828,-2.0114104858398436,-4.719975842285156,-0.3341603053435115,1.0540877862595421,-0.1569351145038168,0
751,-10.729672619628907,-2.0042278808593745,-4.6936396240234375,-0.1662213740458015,0.8403473282442749,-0.2561717557251909,0
776,-10.835017492675782,-1.9012772094726562,-4.739129455566406,0.2612595419847328,2.4128664122137407,-0.13403435114503826,0
801,-11.227666564941405,-2.0497177124023436,-4.873204748535156,0.07041984732824424,-1.3504923664122135,0.2858129770992366,0
827,-10.94993917236328,-1.9970452758789061,-4.62181357421875,1.2459923664122137,-3.564232824427481,0.12550763358778627,0
852,-10.787133459472656,-1.9778916625976561,-4.593083154296875,-0.08225190839694663,0.16859160305343512,-0.30197328244274824,0
877,-10.7081248046875,-1.8653641845703124,-4.686457019042969,0.22309160305343512,1.4357671755725192,-0.47754580152671766,0
902,-10.715307409667968,-2.016198889160156,-4.681668615722656,-0.1509541984732825,-0.14438549618320606,-0.07296564885496182,0
927,-10.748826232910154,-2.0616887207031245,-4.6002657592773435,-0.17385496183206106,0.5044694656488551,-0.23327099236641236,0
952,-10.763191442871094,-2.0018336791992186,-4.703216430664063,0.10858778625954196,0.7411106870229008,-0.05769847328244282,0
977,-10.789527661132812,-2.080842333984375,-4.669697607421875,-0.15858778625954195,0.41286641221374065,-0.20273664122137414,0
1002,-10.777556652832033,-2.0281698974609372,-4.628996179199219,-0.28835877862595427,1.222026717557252,-0.07296564885496182,0
1027,-10.732066821289063,-1.9778916625976561,-4.559564331054688,-0.1509541984732825,0.9624847328244276,-0.17220229007633592,0
1052,-10.76558564453125,-1.9659206542968748,-4.609842565917969,0.1849236641221374,-0.5413320610687022,-0.18746946564885503,0
1077,-10.758403039550782,-2.0521119140624995,-4.739129455566406,0.41393129770992365,-1.0985839694656487,-0.1264007633587786,0
1103,-10.779950854492188,-2.073659729003906,-4.605054162597656,0.20019083969465645,-0.7321717557251906,-0.011896946564885491,0
1128,-10.779950854492188,-1.9659206542968748,-4.688851220703125,0.03225190839694653,-0.4191946564885496,-0.17983587786259536,0
1153,-10.772768249511717,-1.9563438476562498,-4.593083154296875,0.09332061068702285,-0.11385114503816784,-0.18746946564885503,0
1178,-10.779950854492188,-2.044929309082031,-4.511680297851562,-0.08225190839694663,0.321263358778626,-0.33250763358778623,0
1203,-10.758403039550782,-2.0688713256835936,-4.751100463867187,-0.35706106870229015,0.6800419847328245,-0.05769847328244282,0
1228,-10.789527661132812,-2.006622082519531,-4.708004833984375,-0.37232824427480915,1.2830954198473283,-0.19510305343511447,0
1253,-10.791921862792968,-1.9707090576171875,-4.607448364257812,-0.44103053435114503,1.2601946564885498,-0.23327099236641236,0
1278,-10.808681274414063,-1.9874684692382811,-4.686457019042969,-0.08225190839694663,0.7334770992366413,-0.21037022900763358,0
1303,-10.756008837890626,-1.9754974609374998,-4.6385729858398435,0.06278625954198469,-0.5642328244274808,-0.13403435114503826,0
1328,-10.770374047851561,-1.9515554443359375,-4.593083154296875,0.15438931297709924,-0.7398053435114504,-0.011896946564885491,0
1353,-10.758403039550782,-1.9874684692382811,-4.705610632324219,0.3681297709923664,-0.7245381679389311,-0.21037022900763358,0
1378,-10.76558564453125,-2.076053930664062,-4.708004833984375,0.06278625954198469,-0.4955305343511449,-0.19510305343511447,0
1403,-10.770374047851561,-1.9970452758789061,-4.578717944335938,0.14675572519083968,-0.4039274809160305,-0.23327099236641236,0
1428,-10.705730603027344,-2.0018336791992186,-4.645755590820312,-0.11278625954198473,0.35943129770992366,-0.11113358778625948,0
1453,-10.825440686035154,-2.0377467041015622,-4.605054162597656,-0.1509541984732825,1.405232824427481,-0.24853816793893124,0
1478,-10.801498669433592,-1.9994394775390625,-4.652938195800782,-0.38759541984732826,1.6037061068702292,-0.20273664122137414,0
1504,-10.775162451171873,-2.0138046874999995,-4.6744860107421875,-0.21202290076335883,1.0769885496183207,-0.21037022900763358,0
1529,-10.789527661132812,-2.035352502441406,-4.573929541015625,0.06278625954198469,-0.04514885496183196,-0.21037022900763358,0
1554,-10.736855224609375,-2.006622082519531,-4.681668615722656,0.06278625954198469,0.08462213740458036,-0.1416679389312977,0
1579,-10.770374047851561,-2.0209872924804686,-4.648149792480469,0.07041984732824424,-0.06041603053435107,-0.16456870229007647,0
1604,-10.712913208007812,-1.9731032592773439,-4.676880212402343,0.1925572519083969,-0.5565992366412214,-0.1569351145038168,0
1629,-10.79671026611328,-1.9419786376953125,-4.628996179199219,0.1696564885496183,-0.8619427480916029,-0.355408396946565,0
1654,-10.835017492675782,-2.0138046874999995,-4.643361389160156,0.1696564885496183,-0.5794999999999999,-0.19510305343511447,0
1679,-10.825440686035154,-2.0377467041015622,-4.6792744140625,-0.005916030534351191,0.5579045801526719,-0.1264007633587786,0
1704,-10.791921862792968,-1.9036714111328126,-4.6194193725585935,-0.30362595419847327,1.1762251908396948,-0.11113358778625948,0
1729,-10.791921862792968,-1.9922568725585938,-4.624207775878906,-0.18912213740458017,1.2143931297709925,-0.1569351145038168,0
1754,-10.799104467773436,-1.9826800659179689,-4.703216430664063,-0.28835877862595427,0.6571412213740458,-0.09586641221374048,0
1779,-10.741643627929687,-2.0018336791992186,-4.650543994140625,-0.12041984732824429,0.4357671755725192,-0.17983587786259536,0
1804,-10.777556652832033,-1.9898626708984375,-4.6026599609375,-0.005916030534351191,0.4815687022900764,-0.07296564885496182,0
1829,-10.811075476074219,-1.9371902343749998,-4.645755590820312,-0.05935114503816796,0.237293893129771,-0.16456870229007647,0
1854,-10.741643627929687,-1.9611322509765625,-4.631390380859375,0.07041984732824424,-0.6634694656488547,-0.08823282442748093,0
1879,-10.801498669433592,-1.9754974609374998,-4.573929541015625,0.12385496183206107,-0.961179389312977,-0.1416679389312977,0
1905,-10.79671026611328,-2.0090162841796873,-4.605054162597656,-0.0364503816793893,-0.6329351145038169,-0.2409045801526718,0
1930,-10.684182788085938,-1.9563438476562498,-4.6553323974609375,-0.005916030534351191,-0.1367519083969464,-0.14930152671755736,0
1955,-10.770374047851561,-1.9994394775390625,-4.73673525390625,-0.18148854961832062,0.2678282442748092,-0.17220229007633592,0
1980,-10.758403039550782,-2.025775695800781,-4.69842802734375,-0.2349236641221374,1.0617213740458016,0.018637404580152617,0
2005,-10.794316064453124,-1.9395844360351562,-4.614630969238282,-0.3112595419847328,1.2525610687022901,-0.13403435114503826,0
2030,-10.808681274414063,-2.0233814941406245,-4.664909204101562,-0.07461832061068707,0.6418740458015268,-0.17983587786259536,0
2055,-10.820652282714843,-1.9587380493164062,-4.7103990356445316,0.0017175572519083637,0.32889694656488566,-0.10350000000000004,0
2080,-10.789527661132812,-2.0042278808593745,-4.69842802734375,-0.09751908396946563,0.16095801526717568,-0.26380534351145035,0
2105,-10.76558564453125,-2.025775695800781,-4.708004833984375,0.07041984732824424,-0.08331679389312963,-0.13403435114503826,0
2130,-10.73924942626953,-2.0281698974609372,-4.614630969238282,0.15438931297709924,-0.8237748091603052,-0.14930152671755736,0
2155,-10.729672619628907,-1.9754974609374998,-4.593083154296875,0.207824427480916,-0.8161412213740458,-0.3096068702290077,0
2180,-10.777556652832033,-2.0233814941406245,-4.715187438964843,0.22309160305343512,-0.5565992366412214,-0.11113358778625948,0
2205,-10.763191442871094,-2.016198889160156,-4.559564331054688,-0.028816793893129744,0.39759923664122154,-0.20273664122137414,0
2230,-10.758403039550782,-1.9970452758789061,-4.681668615722656,-0.35706106870229015,1.3059961832061069,-0.17983587786259536,0
2255,-10.789527661132812,-2.0233814941406245,-4.624207775878906,-0.4181297709923665,1.573171755725191,-0.19510305343511447,0
2280,-10.744037829589843,-1.9635264526367189,-4.645755590820312,-0.25782442748091605,0.8479809160305345,-0.21037022900763358,0
2306,-10.691365393066405,-2.0329583007812495,-4.662515002441406,0.03225190839694653,0.24492748091603067,-0.2256374045801527,0
2331,-10.736855224609375,-1.9419786376953125,-4.7103990356445316,0.03988549618320608,-0.02224809160305341,-0.05769847328244282,0
2356,-10.787133459472656,-1.9731032592773439,-4.633784582519532,0.10095419847328241,-0.8619427480916029,-0.1264007633587786,0
2381,-10.827834887695314,-1.9802858642578125,-4.554775927734375,0.28416030534351144,-0.7856068702290075,-0.26380534351145035,0
2406,-10.851776904296873,-2.0114104858398436,-4.566746936035156,0.009351145038167918,-0.25888931297709905,-0.2867061068702291,0
2431,-10.729672619628907,-2.0233814941406245,-4.569141137695312,0.009351145038167918,0.2678282442748092,-0.09586641221374048,0
2456,-10.758403039550782,-2.0521119140624995,-4.664909204101562,-0.17385496183206106,0.6342404580152673,-0.1569351145038168,0
2481,-10.73924942626953,-2.016198889160156,-4.628996179199219,-0.22729007633587783,1.4739351145038169,-0.24853816793893124,0
2506,-10.772768249511717,-2.006622082519531,-4.676880212402343,-0.2807251908396947,1.206759541984733,-0.2409045801526718,0
2531,-10.724884216308592,-1.9778916625976561,-4.6936396240234375,-0.01354961832061069,0.206759541984733,-0.09586641221374048,0
2556,-10.772768249511717,-1.9826800659179689,-4.593083154296875,-0.07461832061068707,-0.09095038167938929,-0.23327099236641236,0
2581,-10.7847392578125,-1.9778916625976561,-4.753494665527343,0.2765267175572519,-0.38866030534351137,-0.07296564885496182,0
2606,-10.782345056152344,-2.0114104858398436,-4.523651306152344,0.1696564885496183,-0.7856068702290075,-0.1569351145038168,0
2631,-10.782345056152344,-1.9826800659179689,-4.688851220703125,0.10095419847328241,-0.42682824427480903,-0.1416679389312977,0
2656,-10.775162451171873,-2.0329583007812495,-4.6792744140625,-0.15858778625954195,-0.06041603053435107,-0.0271641221374046,0
2681,-10.787133459472656,-2.0281698974609372,-4.6409671875,-0.05935114503816796,0.7182099236641223,-0.13403435114503826,0
2707,-10.734461022949219,-1.9850742675781248,-4.6936396240234375,-0.3188931297709924,1.4357671755725192,-0.16456870229007647,0
2732,-10.76558564453125,-2.035352502441406,-4.66012080078125,-0.28835877862595427,1.1609580152671757,-0.18746946564885503,0
2757,-10.744037829589843,-1.9946510742187498,-4.648149792480469,-0.1509541984732825,0.45866793893129776,-0.09586641221374048,0
2782,-10.770374047851561,-1.9515554443359375,-4.681668615722656,0.1849236641221374,-0.31232442748091604,-0.08823282442748093,0
2807,-10.775162451171873,-1.9324018310546875,-4.588294750976562,-0.11278625954198473,0.03882061068702303,-0.10350000000000004,0
2832,-10.758403039550782,-1.9874684692382811,-4.6361787841796875,-0.1509541984732825,0.3670648854961833,-0.1264007633587786,0
2857,-10.751220434570314,-1.9754974609374998,-4.573929541015625,0.08568702290076335,-0.06804961832061052,-0.2256374045801527,0
2882,-10.763191442871094,-1.9802858642578125,-4.650543994140625,0.10858778625954196,-0.22835496183206105,-0.21037022900763358,0
2907,-10.75361463623047,-1.9659206542968748,-4.566746936035156,0.0017175572519083637,-0.07568320610687018,0.06443893129770983,0
2932,-10.79671026611328,-1.9659206542968748,-4.628996179199219,-0.25782442748091605,0.38233206106870243,-0.20273664122137414,0
2957,-10.779950854492188,-1.9587380493164062,-4.6194193725585935,-0.08988549618320618,0.4815687022900764,-0.24853816793893124,0
2982,-10.83022908935547,-1.9898626708984375,-4.672091809082032,-0.05171755725190841,0.2220267175572519,-0.11113358778625948,0
3007,-10.758403039550782,-1.9898626708984375,-4.6409671875,-0.07461832061068707,0.2678282442748092,-0.1264007633587786,0
3032,-10.777556652832033,-2.0329583007812495,-4.614630969238282,-0.06698473282442752,0.31362977099236655,-0.08823282442748093,0
3057,-10.760797241210938,-2.0377467041015622,-4.612236767578125,0.03225190839694653,0.44340076335877876,-0.17983587786259536,0
3082,-10.789527661132812,-2.0042278808593745,-4.657726599121093,-0.12805343511450384,-0.17491984732824428,-0.21800381679389325,0
3108,-10.76558564453125,-1.9898626708984375,-4.576323742675781,-0.021183206106870245,0.015919847328244474,-0.06533206106870237,0
3133,-10.760797241210938,-2.044929309082031,-4.652938195800782,0.07041984732824424,-0.09095038167938929,-0.2561717557251909,0
3158,-10.756008837890626,-2.0329583007812495,-4.652938195800782,0.07041984732824424,0.008286259541984808,-0.2561717557251909,0
3183,-10.770374047851561,-2.0281698974609372,-4.628996179199219,-0.01354961832061069,0.206759541984733,-0.10350000000000004,0
3208,-10.748826232910154,-1.9659206542968748,-4.617025170898438,-0.01354961832061069,0.7792786259541986,0.011003816793893062,0
3233,-10.741643627929687,-1.9754974609374998,-4.569141137695312,-0.04408396946564885,0.6113396946564886,-0.09586641221374048,0
3258,-10.777556652832033,-1.9778916625976561,-4.62181357421875,-0.021183206106870245,0.13042366412213746,-0.2409045801526718,0
3283,-10.7847392578125,-1.9467670410156248,-4.6409671875,-0.028816793893129744,-0.08331679389312963,-0.09586641221374048,0
3308,-10.741643627929687,-2.0592945190429686,-4.650543994140625,-0.01354961832061069,-0.029881679389312854,-0.1569351145038168,0
3333,-10.789527661132812,-1.9635264526367189,-4.686457019042969,0.10858778625954196,-0.05278244274809141,-0.20273664122137414,0
3358,-10.76558564453125,-1.9347960327148435,-4.595477355957032,0.07041984732824424,0.06172137404580158,-0.2409045801526718,0
3383,-10.724884216308592,-1.9850742675781248,-4.607448364257812,0.024618320610687028,0.237293893129771,-0.08823282442748093,0
3408,-10.712913208007812,-2.0712655273437495,-4.62181357421875,-0.04408396946564885,-0.05278244274809141,0.018637404580152617,0
3433,-10.732066821289063,-1.9874684692382811,-4.648149792480469,-0.12805343511450384,0.573171755725191,-0.11113358778625948,0
3458,-10.763191442871094,-1.9731032592773439,-4.6026599609375,-0.32652671755725193,1.0006526717557254,-0.24853816793893124,0
3483,-10.746432031249999,-2.016198889160156,-4.664909204101562,-0.06698473282442752,0.3365305343511451,-0.04243129770992371,0
3508,-10.787133459472656,-1.9228250244140626,-4.631390380859375,0.047519083969465636,-0.12911832061068695,-0.1416679389312977,0
3534,-10.758403039550782,-1.9778916625976561,-4.6002657592773435,0.13148854961832057,-0.48789694656488547,-0.034797709923664155,0
3559,-10.808681274414063,-2.0305640991210936,-4.6194193725585935,0.23835877862595417,-0.3962938931297708,-0.21037022900763358,0
3584,-10.76558564453125,-1.9707090576171875,-4.66012080078125,-0.08225190839694663,-0.006980916030534301,-0.2409045801526718,0
3609,-10.756008837890626,-2.006622082519531,-4.593083154296875,-0.24255725190839694,0.6495076335877864,-0.24853816793893124,0
3634,-10.746432031249999,-2.0305640991210936,-4.628996179199219,-0.17385496183206106,0.4510343511450383,-0.07296564885496182,0
3659,-10.75361463623047,-1.9850742675781248,-4.6385729858398435,-0.18912213740458017,0.6418740458015268,-0.1416679389312977,0
3684,-10.789527661132812,-1.9970452758789061,-4.605054162597656,-0.28835877862595427,1.4434007633587786,-0.13403435114503826,0
3709,-10.748826232910154,-1.9994394775390625,-4.715187438964843,-0.21202290076335883,0.8174465648854963,-0.1416679389312977,0
3734,-10.760797241210938,-2.090419140625,-4.662515002441406,-0.028816793893129744,-0.4039274809160305,-0.24853816793893124,0
3759,-10.744037829589843,-2.0018336791992186,-4.753494665527343,0.34522900763358777,-1.07568320610687,-0.27143893129771,0
3784,-10.748826232910154,-1.9659206542968748,-4.617025170898438,0.1696564885496183,-0.9077442748091604,-0.034797709923664155,0
3809,-10.799104467773436,-1.9994394775390625,-4.533228112792969,-0.04408396946564885,-0.15965267175572517,-0.16456870229007647,0
3834,-10.777556652832033,-1.9898626708984375,-4.643361389160156,-0.11278625954198473,0.321263358778626,-0.06533206106870237,0
3859,-10.744037829589843,-1.9731032592773439,-4.6361787841796875,-0.0364503816793893,0.75637786259542,-0.17983587786259536,0
3884,-10.777556652832033,-2.044929309082031,-4.626601977539062,-0.30362595419847327,1.038820610687023,-0.04243129770992371,0
3910,-10.837411694335938,-2.0305640991210936,-4.538016516113281,-0.3646946564885496,1.9166832061068704,-0.1569351145038168,0
3935,-10.770374047851561,-2.0329583007812495,-4.672091809082032,-0.08988549618320618,0.9930190839694657,-0.0271641221374046,0
3960,-10.686576989746094,-1.9539496459960939,-4.645755590820312,0.29942748091603055,-0.5260648854961831,-0.050064885496183265,0
3985,-10.806287072753907,-1.9659206542968748,-4.669697607421875,0.29942748091603055,-1.129118320610687,-0.04243129770992371,0
4010,-10.79671026611328,-1.9970452758789061,-4.624207775878906,0.3833969465648855,-1.174919847328244,-0.3096068702290077,0
4035,-10.794316064453124,-2.056900317382812,-4.681668615722656,0.2612595419847328,-0.8008740458015264,-0.19510305343511447,0
4060,-10.775162451171873,-2.0042278808593745,-4.595477355957032,-0.021183206106870245,0.2907290076335878,-0.04243129770992371,0
4085,-10.760797241210938,-2.0114104858398436,-4.573929541015625,-0.04408396946564885,0.5121030534351146,-0.17983587786259536,0
4110,-10.7081248046875,-1.9946510742187498,-4.573929541015625,-0.34179389312977104,1.1991259541984733,-0.18746946564885503,0
4135,-10.75361463623047,-2.0377467041015622,-4.58350634765625,-0.5402671755725191,1.786912213740458,-0.050064885496183265,0
4160,-10.732066821289063,-1.9898626708984375,-4.554775927734375,-0.2654580152671756,1.5350038167938933,-0.050064885496183265,0
4185,-10.777556652832033,-1.9491612426757812,-4.688851220703125,-0.05935114503816796,0.21439312977099245,-0.06533206106870237,0
4210,-10.782345056152344,-1.9778916625976561,-4.664909204101562,0.11622137404580152,-0.4344618320610687,-0.1569351145038168,0
4235,-10.756008837890626,-1.9826800659179689,-4.605054162597656,0.0780534351145038,-0.3962938931297708,0.011003816793893062,0
4261,-10.770374047851561,-1.9898626708984375,-4.578717944335938,0.3604961832061069,-0.9993473282442746,-0.2256374045801527,0
4286,-10.729672619628907,-2.025775695800781,-4.624207775878906,0.28416030534351144,-0.9306450381679388,-0.3248740458015268,0
4311,-10.782345056152344,-2.0233814941406245,-4.58350634765625,-0.07461832061068707,-0.14438549618320606,-0.09586641221374048,0
4336,-10.825440686035154,-1.9419786376953125,-4.595477355957032,-0.19675572519083973,0.9395839694656489,-0.1264007633587786,0
4361,-10.789527661132812,-2.035352502441406,-4.662515002441406,-0.3799618320610687,1.2143931297709925,-0.2561717557251909,0
4386,-10.717701611328124,-2.0305640991210936,-4.614630969238282,-0.2349236641221374,1.038820610687023,-0.14930152671755736,0
4411,-10.741643627929687,-2.0114104858398436,-4.657726599121093,-0.22729007633587783,0.9777519083969466,-0.21800381679389325,0
4436,-10.724884216308592,-1.9467670410156248,-4.703216430664063,-0.07461832061068707,0.7105763358778627,-0.07296564885496182,0
4461,-10.696153796386717,-2.0377467041015622,-4.657726599121093,-0.09751908396946563,-0.3352251908396946,-0.06533206106870237,0
4486,-10.787133459472656,-2.0114104858398436,-4.554775927734375,0.23835877862595417,-0.6940038167938929,-0.21037022900763358,0
4511,-10.758403039550782,-1.9659206542968748,-4.6409671875,0.14675572519083968,-0.9001106870229005,-0.05769847328244282,0
4536,-10.799104467773436,-1.9826800659179689,-4.645755590820312,0.10095419847328241,-0.3504923664122137,0.06443893129770983,0
4561,-10.75361463623047,-1.9371902343749998,-4.631390380859375,-0.021183206106870245,-0.07568320610687018,-0.3401412213740459,0
4586,-10.710519006347656,-2.0090162841796873,-4.58350634765625,-0.1509541984732825,0.41286641221374065,-0.21037022900763358,0
4611,-10.782345056152344,-1.9683148559570312,-4.6002657592773435,-0.1356870229007634,0.7105763358778627,-0.19510305343511447,0
4636,-10.835017492675782,-2.056900317382812,-4.578717944335938,-0.12805343511450384,1.0693549618320612,-0.1569351145038168,0
4661,-10.770374047851561,-2.0138046874999995,-4.669697607421875,-0.09751908396946563,0.4815687022900764,-0.26380534351145035,0
4687,-10.772768249511717,-1.9922568725585938,-4.593083154296875,-0.08225190839694663,0.1914923664122139,-0.11113358778625948,0
4712,-10.808681274414063,-1.9994394775390625,-4.688851220703125,0.10858778625954196,0.38233206106870243,-0.16456870229007647,0
4737,-10.777556652832033,-1.9946510742187498,-4.624207775878906,-0.06698473282442752,0.19912595419847334,-0.09586641221374048,0
4762,-10.724884216308592,-2.0425351074218745,-4.54519912109375,0.10858778625954196,-0.18255343511450373,-0.24853816793893124,0
4787,-10.748826232910154,-1.9491612426757812,-4.645755590820312,0.047519083969465636,0.03882061068702303,-0.24853816793893124,0
4812,-10.803892871093751,-1.9826800659179689,-4.645755590820312,-0.1356870229007634,-0.05278244274809141,-0.11113358778625948,0
4837,-10.748826232910154,-2.0521119140624995,-4.628996179199219,0.10095419847328241,0.03882061068702303,-0.16456870229007647,0
4862,-10.827834887695314,-2.0114104858398436,-4.585900549316406,0.0017175572519083637,0.2754618320610689,-0.16456870229007647,0
4887,-10.81586387939453,-2.0305640991210936,-4.609842565917969,-0.08225190839694663,0.9090496183206108,-0.2256374045801527,0
4912,-10.734461022949219,-1.9922568725585938,-4.645755590820312,-0.028816793893129744,0.9624847328244276,-0.1416679389312977,0
4937,-10.756008837890626,-1.9754974609374998,-4.6002657592773435,-0.19675572519083973,0.3670648854961833,-0.18746946564885503,0
4962,-10.789527661132812,-1.9802858642578125,-4.617025170898438,-0.14332061068702295,0.3517977099236642,-0.21037022900763358,0
4987,-10.756008837890626,-2.0329583007812495,-4.595477355957032,-0.04408396946564885,0.28309541984732833,-0.1569351145038168,0
5012,-10.736855224609375,-1.9946510742187498,-4.6002657592773435,0.08568702290076335,0.2754618320610689,-0.27907251908396946,0
5037,-10.705730603027344,-2.0329583007812495,-4.643361389160156,-0.028816793893129744,0.13805725190839713,-0.09586641221374048,0
5062,-10.782345056152344,-2.0114104858398436,-4.571535339355469,-0.05171755725190841,-0.07568320610687018,-0.16456870229007647,0
5088,-10.736855224609375,-2.0305640991210936,-4.617025170898438,0.08568702290076335,-0.5718664122137405,-0.19510305343511447,0
5113,-10.851776904296873,-2.006622082519531,-4.609842565917969,0.1696564885496183,-0.27415648854961816,-0.05769847328244282,0
5138,-10.806287072753907,-1.9898626708984375,-4.588294750976562,-0.08225190839694663,0.4815687022900764,-0.07296564885496182,0
5163,-10.746432031249999,-1.9826800659179689,-4.605054162597656,-0.12041984732824429,0.9243167938931298,-0.04243129770992371,0
5188,-10.703336401367189,-2.0233814941406245,-4.614630969238282,-0.07461832061068707,0.9472175572519085,-0.07296564885496182,0
5213,-10.791921862792968,-2.0138046874999995,-4.734341052246093,-0.028816793893129744,0.6037061068702291,-0.20273664122137414,0
5238,-10.799104467773436,-1.9826800659179689,-4.595477355957032,-0.14332061068702295,0.45866793893129776,-0.4393778625954198,0
5263,-10.734461022949219,-1.9108540161132812,-4.66012080078125,0.20019083969465645,-0.014614503816793745,-0.19510305343511447,0
5288,-10.81586387939453,-1.9491612426757812,-4.547593322753906,0.047519083969465636,-0.18255343511450373,-0.2561717557251909,0
5313,-10.729672619628907,-1.9850742675781248,-4.588294750976562,-0.08225190839694663,-0.07568320610687018,-0.26380534351145035,0
5338,-10.75361463623047,-1.9874684692382811,-4.626601977539062,0.1696564885496183,-0.029881679389312854,-0.18746946564885503,0
5363,-10.741643627929687,-2.0305640991210936,-4.652938195800782,0.1925572519083969,-0.2817900763358778,-0.13403435114503826,0
5388,-10.746432031249999,-1.9898626708984375,-4.664909204101562,-0.05171755725190841,0.206759541984733,-0.1569351145038168,0
5413,-10.748826232910154,-1.9970452758789061,-4.609842565917969,-0.2349236641221374,0.8632480916030535,-0.13403435114503826,0
5438,-10.777556652832033,-2.0042278808593745,-4.686457019042969,0.10858778625954196,-0.18255343511450373,-0.2256374045801527,0
5463,-10.736855224609375,-2.0185930908203122,-4.5811121459960935,-0.05171755725190841,0.4510343511450383,-0.30197328244274824,0
5488,-10.79671026611328,-1.9946510742187498,-4.7487062622070315,-0.15858778625954195,1.4586679389312978,-0.17220229007633592,0
5514,-10.758403039550782,-1.9946510742187498,-4.681668615722656,-0.3494274809160306,1.2830954198473283,-0.24853816793893124,0
5539,-10.756008837890626,-2.0233814941406245,-4.676880212402343,0.12385496183206107,-0.5718664122137405,-0.08823282442748093,0
5564,-10.7847392578125,-1.9587380493164062,-4.590688952636719,0.3375954198473282,-0.8848435114503816,-0.08823282442748093,0
5589,-10.76558564453125,-1.9994394775390625,-4.557170129394531,0.12385496183206107,-0.2207213740458014,-0.17220229007633592,0
5614,-10.705730603027344,-1.9371902343749998,-4.643361389160156,-0.021183206106870245,-0.4191946564885496,-0.16456870229007647,0
5639,-10.799104467773436,-2.0521119140624995,-4.593083154296875,0.024618320610687028,0.015919847328244474,-0.11876717557251915,0
5664,-10.803892871093751,-2.0018336791992186,-4.617025170898438,-0.18148854961832062,1.107522900763359,-0.1416679389312977,0
5689,-10.763191442871094,-2.0521119140624995,-4.717581640625,-0.0364503816793893,0.6342404580152673,0.018637404580152617,0
5714,-10.791921862792968,-2.0377467041015622,-4.617025170898438,-0.14332061068702295,0.2907290076335878,-0.11876717557251915,0
5739,-10.741643627929687,-2.0233814941406245,-4.727158447265625,-0.1356870229007634,0.8937824427480917,-0.1569351145038168,0
5764,-10.710519006347656,-1.9898626708984375,-4.58350634765625,0.09332061068702285,0.1762251908396948,-0.27143893129771,0
5789,-10.76558564453125,-1.9850742675781248,-4.664909204101562,0.12385496183206107,-0.3962938931297708,-0.14930152671755736,0
5814,-10.75361463623047,-1.9874684692382811,-4.573929541015625,0.1849236641221374,-0.5718664122137405,-0.26380534351145035,0
5839,-10.770374047851561,-1.9419786376953125,-4.650543994140625,0.009351145038167918,0.06172137404580158,-0.30197328244274824,0
5864,-10.756008837890626,-2.006622082519531,-4.626601977539062,-0.05171755725190841,-0.21308778625954194,-0.18746946564885503,0
5889,-10.81586387939453,-2.0233814941406245,-4.6744860107421875,0.03225190839694653,0.14569083969465657,-0.04243129770992371,0
5914,-10.779950854492188,-1.9898626708984375,-4.628996179199219,-0.08225190839694663,0.5044694656488551,-0.14930152671755736,0
5940,-10.76558564453125,-2.016198889160156,-4.6553323974609375,-0.1509541984732825,0.6953091603053436,-0.16456870229007647,0
5965,-10.746432031249999,-2.0305640991210936,-4.6385729858398435,-0.15858778625954195,0.8098129770992367,-0.16456870229007647,0
5990,-10.67700018310547,-2.0281698974609372,-4.595477355957032,-0.11278625954198473,0.8327137404580154,-0.30197328244274824,0
6015,-10.770374047851561,-2.0233814941406245,-4.612236767578125,-0.005916030534351191,0.13042366412213746,-0.20273664122137414,0
6040,-10.732066821289063,-2.035352502441406,-4.5428049194335935,0.10858778625954196,-0.3657595419847328,-0.1569351145038168,0
6065,-10.787133459472656,-1.9491612426757812,-4.676880212402343,0.15438931297709924,-0.3810267175572517,-0.17983587786259536,0
6090,-10.770374047851561,-1.9419786376953125,-4.662515002441406,0.10095419847328241,-0.14438549618320606,-0.0271641221374046,0
6115,-10.751220434570314,-2.0209872924804686,-4.648149792480469,0.024618320610687028,0.19912595419847334,-0.10350000000000004,0
6140,-10.756008837890626,-1.9707090576171875,-4.607448364257812,-0.028816793893129744,0.2525610687022901,-0.27907251908396946,0
6165,-10.75361463623047,-2.0138046874999995,-4.703216430664063,-0.1509541984732825,0.37469847328244277,-0.08059923664122137,0
6190,-10.763191442871094,-1.9084598144531248,-4.593083154296875,-0.0364503816793893,0.5808053435114505,0.033904580152671726,0
6215,-10.772768249511717,-2.035352502441406,-4.564352734375,-0.3799618320610687,0.8098129770992367,-0.17220229007633592,0
6240,-10.760797241210938,-1.9156424194335935,-4.6385729858398435,-0.2654580152671756,0.6266068702290077,-0.27907251908396946,0
6265,-10.767979846191405,-1.9850742675781248,-4.559564331054688,-0.07461832061068707,0.07698854961832069,-0.2256374045801527,0
6290,-10.801498669433592,-2.064082922363281,-4.705610632324219,0.0780534351145038,-0.3657595419847328,-0.06533206106870237,0
6316,-10.825440686035154,-2.0497177124023436,-4.703216430664063,0.09332061068702285,-0.07568320610687018,-0.27143893129771,0
6341,-10.818258081054687,-2.0425351074218745,-4.631390380859375,-0.0364503816793893,0.3365305343511451,-0.2561717557251909,0
6366,-10.772768249511717,-2.0090162841796873,-4.609842565917969,-0.021183206106870245,-0.029881679389312854,-0.16456870229007647,0
6391,-10.741643627929687,-1.9922568725585938,-4.58350634765625,-0.0364503816793893,-0.32759160305343493,-0.14930152671755736,0
6416,-10.823046484374998,-1.9539496459960939,-4.595477355957032,-0.05935114503816796,0.2601946564885498,-0.1569351145038168,0
6441,-10.806287072753907,-2.006622082519531,-4.645755590820312,-0.1356870229007634,0.6495076335877864,-0.07296564885496182,0
6466,-10.72009581298828,-1.9874684692382811,-4.631390380859375,-0.2501908396946565,0.6647748091603054,-0.1416679389312977,0
6491,-10.799104467773436,-1.9898626708984375,-4.6002657592773435,-0.01354961832061069,0.3365305343511451,-0.09586641221374048,0
6516,-10.811075476074219,-2.006622082519531,-4.691245422363282,-0.06698473282442752,0.22966030534351156,-0.16456870229007647,0
6541,-10.777556652832033,-2.056900317382812,-4.566746936035156,-0.08988549618320618,0.16095801526717568,-0.16456870229007647,0
6566,-10.79671026611328,-1.9419786376953125,-4.624207775878906,-0.005916030534351191,0.15332442748091624,-0.16456870229007647,0
6591,-10.75361463623047,-2.0018336791992186,-4.6026599609375,0.016984732824427473,0.1914923664122139,-0.1569351145038168,0
6616,-10.748826232910154,-1.9539496459960939,-4.58350634765625,0.1925572519083969,-0.3810267175572517,-0.10350000000000004,0
6641,-10.775162451171873,-1.9347960327148435,-4.6792744140625,0.22309160305343512,-0.5794999999999999,-0.13403435114503826,0
6666,-10.746432031249999,-1.9826800659179689,-4.614630969238282,-0.06698473282442752,0.18385877862595423,-0.19510305343511447,0
6691,-10.811075476074219,-1.9563438476562498,-4.717581640625,-0.2959923664122137,1.122790076335878,-0.06533206106870237,0
6716,-10.741643627929687,-1.9994394775390625,-4.6385729858398435,-0.07461832061068707,0.4205000000000001,-0.1569351145038168,0
6742,-10.75361463623047,-1.9850742675781248,-4.573929541015625,-0.05171755725190841,0.11515648854961835,-0.11113358778625948,0
6767,-10.758403039550782,-1.9874684692382811,-4.633784582519532,0.024618320610687028,0.8098129770992367,-0.18746946564885503,0
6792,-10.789527661132812,-2.0042278808593745,-4.719975842285156,0.024618320610687028,0.06172137404580158,-0.17983587786259536,0
6817,-10.758403039550782,-2.006622082519531,-4.662515002441406,-0.005916030534351191,-0.05278244274809141,-0.1416679389312977,0
6842,-10.758403039550782,-1.9419786376953125,-4.569141137695312,-0.04408396946564885,0.0006526717557253647,-0.1569351145038168,0
6867,-10.76558564453125,-1.9898626708984375,-4.6792744140625,0.07041984732824424,-0.31232442748091604,-0.27143893129771,0
6892,-10.787133459472656,-2.044929309082031,-4.6026599609375,0.09332061068702285,-0.2207213740458014,-0.17220229007633592,0
6917,-10.741643627929687,-2.047323510742187,-4.607448364257812,-0.06698473282442752,0.5350038167938932,-0.13403435114503826,0
6942,-10.782345056152344,-1.9324018310546875,-4.5811121459960935,-0.021183206106870245,0.7640114503816795,-0.08059923664122137,0
6967,-10.751220434570314,-1.9946510742187498,-4.597871557617188,-0.028816793893129744,0.03118702290076336,-0.19510305343511447,0
6992,-10.724884216308592,-2.016198889160156,-4.6409671875,-0.12041984732824429,0.41286641221374065,-0.20273664122137414,0
7017,-10.727278417968751,-2.025775695800781,-4.676880212402343,-0.07461832061068707,0.6342404580152673,-0.21800381679389325,0
7042,-10.758403039550782,-2.0281698974609372,-4.62181357421875,-0.12041984732824429,0.16859160305343512,-0.23327099236641236,0
7067,-10.772768249511717,-2.0305640991210936,-4.628996179199219,-0.01354961832061069,-0.27415648854961816,-0.11113358778625948,0
7092,-10.832623291015626,-2.025775695800781,-4.657726599121093,0.10858778625954196,0.015919847328244474,-0.11113358778625948,0
7117,-10.772768249511717,-1.9970452758789061,-4.662515002441406,0.0780534351145038,0.13042366412213746,0.011003816793893062,0
7142,-10.772768249511717,-2.0042278808593745,-4.5619585327148435,0.016984732824427473,0.09988931297709924,-0.05769847328244282,0
7168,-10.772768249511717,-2.0497177124023436,-4.528439709472656,-0.08225190839694663,0.7411106870229008,-0.09586641221374048,0
7193,-10.734461022949219,-1.9611322509765625,-4.593083154296875,-0.07461832061068707,0.2525610687022901,-0.019530534351145046,0
7218,-10.794316064453124,-2.0209872924804686,-4.624207775878906,-0.005916030534351191,-0.2207213740458014,-0.019530534351145046,0
7243,-10.782345056152344,-1.9802858642578125,-4.590688952636719,-0.24255725190839694,0.6189732824427482,-0.11113358778625948,0
7268,-10.870930517578124,-2.006622082519531,-4.607448364257812,-0.15858778625954195,0.489202290076336,-0.11876717557251915,0
7293,-10.791921862792968,-1.9419786376953125,-4.569141137695312,0.0017175572519083637,-0.12911832061068695,-0.24853816793893124,0
7318,-10.775162451171873,-2.0114104858398436,-4.612236767578125,-0.028816793893129744,0.3517977099236642,-0.1569351145038168,0
7343,-10.75361463623047,-1.9850742675781248,-4.62181357421875,-0.005916030534351191,-0.08331679389312963,-0.30197328244274824,0
7368,-10.779950854492188,-2.0042278808593745,-4.62181357421875,0.07041984732824424,-0.25888931297709905,-0.29433969465648857,0
7393,-10.727278417968751,-1.9347960327148435,-4.633784582519532,-0.1662213740458015,0.22966030534351156,-0.08059923664122137,0
7418,-10.760797241210938,-2.0018336791992186,-4.585900549316406,-0.08225190839694663,0.4663015267175573,0.0033702290076335073,0
7443,-10.758403039550782,-2.0138046874999995,-4.571535339355469,0.009351145038167918,0.023553435114503918,-0.08059923664122137,0
7468,-10.736855224609375,-1.9419786376953125,-4.609842565917969,0.0017175572519083637,0.321263358778626,-0.05769847328244282,0
7493,-10.794316064453124,-2.0233814941406245,-4.6361787841796875,-0.09751908396946563,0.4205000000000001,-0.16456870229007647,0
7518,-10.837411694335938,-1.9850742675781248,-4.559564331054688,-0.005916030534351191,0.6037061068702291,-0.2256374045801527,0
7543,-10.686576989746094,-1.9467670410156248,-4.6361787841796875,0.009351145038167918,0.2678282442748092,-0.21800381679389325,0
7569,-10.741643627929687,-2.0042278808593745,-4.6361787841796875,0.05515267175572519,0.29836259541984744,-0.13403435114503826,0
7594,-10.715307409667968,-2.0377467041015622,-4.6409671875,-0.06698473282442752,0.2220267175572519,-0.14930152671755736,0
7619,-10.823046484374998,-1.9563438476562498,-4.578717944335938,-0.07461832061068707,-0.16728625954198462,-0.3248740458015268,0
7644,-10.820652282714843,-2.0114104858398436,-4.58350634765625,0.03225190839694653,-0.2817900763358778,-0.019530534351145046,0
7669,-10.767979846191405,-1.9563438476562498,-4.664909204101562,-0.08225190839694663,0.37469847328244277,-0.019530534351145046,0
7694,-10.83022908935547,-1.9994394775390625,-4.6385729858398435,-0.04408396946564885,0.321263358778626,-0.2409045801526718,0
7719,-10.736855224609375,-1.9874684692382811,-4.66012080078125,-0.08988549618320618,0.35943129770992366,-0.17220229007633592,0
7744,-10.794316064453124,-2.006622082519531,-4.559564331054688,-0.14332061068702295,0.405232824427481,-0.21037022900763358,0
7769,-10.777556652832033,-2.0018336791992186,-4.650543994140625,-0.06698473282442752,0.44340076335877876,-0.20273664122137414,0
7794,-10.767979846191405,-2.0281698974609372,-4.612236767578125,-0.21202290076335883,0.2754618320610689,-0.11876717557251915,0
7819,-10.736855224609375,-2.0784481323242185,-4.6553323974609375,0.024618320610687028,-0.31232442748091604,-0.05769847328244282,0
7844,-10.799104467773436,-2.0688713256835936,-4.566746936035156,0.26889312977099233,-0.06041603053435107,-0.08823282442748093,0
7869,-10.75361463623047,-1.9850742675781248,-4.6194193725585935,-0.07461832061068707,0.237293893129771,-0.13403435114503826,0
7894,-10.789527661132812,-2.0209872924804686,-4.691245422363282,-0.22729007633587783,0.2601946564885498,-0.17220229007633592,0
7919,-10.803892871093751,-2.025775695800781,-4.6744860107421875,-0.005916030534351191,-0.12148473282442729,-0.21800381679389325,0
7944,-10.770374047851561,-1.9802858642578125,-4.69842802734375,0.016984732824427473,0.3517977099236642,-0.11876717557251915,0
7969,-10.782345056152344,-1.9970452758789061,-4.6385729858398435,-0.10515267175572518,0.6876755725190841,-0.08823282442748093,0
7995,-10.744037829589843,-2.035352502441406,-4.667303405761719,-0.24255725190839694,0.8479809160305345,-0.004263358778625936,0
8020,-10.79671026611328,-1.9778916625976561,-4.566746936035156,-0.1356870229007634,0.573171755725191,-0.0271641221374046,0
8045,-10.7081248046875,-2.076053930664062,-4.5619585327148435,0.08568702290076335,-0.1062175572519084,-0.07296564885496182,0
8070,-10.763191442871094,-1.9802858642578125,-4.614630969238282,0.1696564885496183,-0.02224809160305341,-0.13403435114503826,0
8095,-10.808681274414063,-2.0090162841796873,-4.652938195800782,-0.17385496183206106,0.09988931297709924,-0.06533206106870237,0
8120,-10.770374047851561,-2.047323510742187,-4.590688952636719,0.03988549618320608,0.14569083969465657,-0.19510305343511447,0
8145,-10.75361463623047,-2.0090162841796873,-4.578717944335938,0.09332061068702285,-0.17491984732824428,-0.16456870229007647,0
8170,-10.820652282714843,-1.9826800659179689,-4.576323742675781,0.05515267175572519,0.1914923664122139,-0.09586641221374048,0
8195,-10.748826232910154,-1.9850742675781248,-4.609842565917969,-0.005916030534351191,0.32889694656488566,-0.1416679389312977,0
8220,-10.691365393066405,-2.0521119140624995,-4.578717944335938,0.047519083969465636,0.3670648854961833,-0.1416679389312977,0
8245,-10.75361463623047,-2.016198889160156,-4.6936396240234375,-0.10515267175572518,0.489202290076336,-0.06533206106870237,0
8270,-10.801498669433592,-2.0090162841796873,-4.6361787841796875,0.047519083969465636,0.6189732824427482,-0.21800381679389325,0
8295,-10.789527661132812,-1.9874684692382811,-4.605054162597656,-0.09751908396946563,0.2907290076335878,-0.20273664122137414,0
8320,-10.724884216308592,-1.9587380493164062,-4.578717944335938,0.05515267175572519,0.11515648854961835,-0.11113358778625948,0
8345,-10.732066821289063,-2.0377467041015622,-4.5428049194335935,-0.09751908396946563,0.15332442748091624,-0.1264007633587786,0
8370,-10.770374047851561,-1.9874684692382811,-4.609842565917969,0.0017175572519083637,0.1914923664122139,-0.27907251908396946,0
8396,-10.772768249511717,-2.0090162841796873,-4.719975842285156,0.06278625954198469,0.05408778625954214,-0.29433969465648857,0
8421,-10.782345056152344,-2.0114104858398436,-4.672091809082032,-0.08225190839694663,0.24492748091603067,-0.08059923664122137,0
8446,-10.801498669433592,-2.0185930908203122,-4.652938195800782,-0.01354961832061069,0.06172137404580158,-0.16456870229007647,0
8471,-10.777556652832033,-1.9946510742187498,-4.645755590820312,0.11622137404580152,-0.08331679389312963,0.0033702290076335073,0
8496,-10.799104467773436,-2.016198889160156,-4.5260455078125,-0.21202290076335883,0.16859160305343512,-0.21800381679389325,0
8521,-10.777556652832033,-1.9826800659179689,-4.540410717773438,-0.17385496183206106,0.35943129770992366,-0.3096068702290077,0
8546,-10.76558564453125,-1.9778916625976561,-4.54519912109375,0.07041984732824424,0.07698854961832069,-0.11113358778625948,0
8571,-10.770374047851561,-2.0018336791992186,-4.569141137695312,0.13148854961832057,-0.21308778625954194,-0.16456870229007647,0
8596,-10.825440686035154,-2.0138046874999995,-4.6026599609375,-0.028816793893129744,0.41286641221374065,-0.1416679389312977,0
8621,-10.789527661132812,-1.9826800659179689,-4.688851220703125,-0.20438931297709928,1.0082862595419848,0.018637404580152617,0
8646,-10.763191442871094,-2.0305640991210936,-4.667303405761719,-0.1662213740458015,0.2601946564885498,-0.17983587786259536,0
8671,-10.806287072753907,-2.044929309082031,-4.624207775878906,0.009351145038167918,-0.12911832061068695,-0.11113358778625948,0
8696,-10.820652282714843,-1.9850742675781248,-4.724764245605469,0.0780534351145038,-0.16728625954198462,-0.21800381679389325,0
8721,-10.801498669433592,-2.025775695800781,-4.6936396240234375,-0.0364503816793893,0.04645419847328247,-0.19510305343511447,0
8746,-10.75361463623047,-2.035352502441406,-4.607448364257812,0.009351145038167918,0.1762251908396948,-0.26380534351145035,0
8771,-10.746432031249999,-1.9946510742187498,-4.516468701171875,0.047519083969465636,0.14569083969465657,-0.004263358778625936,0
8797,-10.803892871093751,-2.083236535644531,-4.703216430664063,-0.005916030534351191,0.2907290076335878,-0.3096068702290077,0
8822,-10.751220434570314,-2.044929309082031,-4.657726599121093,-0.12041984732824429,0.24492748091603067,-0.2256374045801527,0
8847,-10.756008837890626,-2.0090162841796873,-4.552381726074219,-0.08225190839694663,0.44340076335877876,-0.019530534351145046,0
8872,-10.779950854492188,-1.9659206542968748,-4.633784582519532,-0.06698473282442752,0.2601946564885498,-0.034797709923664155,0
8897,-10.700942199707033,-2.035352502441406,-4.69842802734375,-0.05935114503816796,0.008286259541984808,-0.1569351145038168,0
8922,-10.823046484374998,-2.0018336791992186,-4.593083154296875,-0.04408396946564885,0.023553435114503918,-0.24853816793893124,0
8947,-10.700942199707033,-2.0281698974609372,-4.667303405761719,0.047519083969465636,0.38233206106870243,-0.2561717557251909,0
8972,-10.794316064453124,-1.9802858642578125,-4.624207775878906,0.05515267175572519,0.05408778625954214,-0.1264007633587786,0
8997,-10.763191442871094,-2.044929309082031,-4.650543994140625,0.03225190839694653,0.14569083969465657,-0.1264007633587786,0
9022,-10.7847392578125,-2.016198889160156,-4.633784582519532,-0.10515267175572518,0.24492748091603067,-0.30197328244274824,0
9047,-10.75361463623047,-1.9946510742187498,-4.614630969238282,-0.07461832061068707,0.45866793893129776,-0.24853816793893124,0
9072,-10.779950854492188,-2.016198889160156,-4.588294750976562,-0.05171755725190841,0.1762251908396948,-0.1416679389312977,0
9097,-10.787133459472656,-2.0018336791992186,-4.597871557617188,0.009351145038167918,-0.02224809160305341,-0.004263358778625936,0
9122,-10.756008837890626,-2.0592945190429686,-4.549987524414062,0.05515267175572519,0.03882061068702303,-0.23327099236641236,0
9147,-10.751220434570314,-1.9731032592773439,-4.6744860107421875,-0.028816793893129744,-0.029881679389312854,-0.2256374045801527,0
9172,-10.751220434570314,-1.9898626708984375,-4.715187438964843,-0.08988549618320618,0.29836259541984744,-0.26380534351145035,0
9198,-10.813469677734375,-1.9563438476562498,-4.576323742675781,0.024618320610687028,0.37469847328244277,-0.21037022900763358,0
9223,-10.758403039550782,-1.9778916625976561,-4.614630969238282,-0.005916030534351191,0.07698854961832069,-0.23327099236641236,0
9248,-10.736855224609375,-1.9659206542968748,-4.573929541015625,-0.06698473282442752,0.321263358778626,-0.17983587786259536,0
9273,-10.75361463623047,-2.006622082519531,-4.576323742675781,-0.19675572519083973,0.6418740458015268,-0.04243129770992371,0
9298,-10.751220434570314,-1.9731032592773439,-4.650543994140625,-0.17385496183206106,0.39759923664122154,-0.20273664122137414,0
9323,-10.81586387939453,-2.0090162841796873,-4.650543994140625,-0.08988549618320618,0.19912595419847334,-0.0271641221374046,0
9348,-10.808681274414063,-2.0233814941406245,-4.6026599609375,0.10858778625954196,-0.3352251908396946,-0.16456870229007647,0
9373,-10.777556652832033,-2.035352502441406,-4.648149792480469,-0.09751908396946563,-0.25888931297709905,-0.17220229007633592,0
9398,-10.7847392578125,-1.9587380493164062,-4.595477355957032,-0.11278625954198473,0.38233206106870243,-0.13403435114503826,0
9423,-10.779950854492188,-1.9898626708984375,-4.6026599609375,-0.18912213740458017,0.5426374045801527,-0.19510305343511447,0
9448,-10.751220434570314,-2.0425351074218745,-4.617025170898438,-0.01354961832061069,0.07698854961832069,-0.18746946564885503,0
9473,-10.763191442871094,-2.0377467041015622,-4.6385729858398435,0.10858778625954196,0.206759541984733,-0.11876717557251915,0
9498,-10.760797241210938,-1.9994394775390625,-4.628996179199219,-0.01354961832061069,0.4205000000000001,-0.11876717557251915,0
9523,-10.700942199707033,-1.9922568725585938,-4.648149792480469,-0.18912213740458017,0.5579045801526719,-0.011896946564885491,0
9548,-10.772768249511717,-2.0114104858398436,-4.624207775878906,-0.11278625954198473,0.34416412213740477,-0.3096068702290077,0
9574,-10.76558564453125,-1.9778916625976561,-4.62181357421875,0.024618320610687028,0.2678282442748092,-0.011896946564885491,0
9599,-10.73924942626953,-1.9922568725585938,-4.6026599609375,0.016984732824427473,-0.1520190839694655,-0.21037022900763358,0
9624,-10.760797241210938,-2.025775695800781,-4.676880212402343,0.13912213740458013,0.03118702290076336,-0.06533206106870237,0
9649,-10.76558564453125,-2.0305640991210936,-4.626601977539062,0.11622137404580152,-0.20545419847328228,-0.21800381679389325,0
9674,-10.794316064453124,-2.016198889160156,-4.614630969238282,-0.01354961832061069,0.28309541984732833,-0.05769847328244282,0
9699,-10.777556652832033,-1.9659206542968748,-4.6026599609375,0.14675572519083968,0.35943129770992366,-0.11113358778625948,0
9724,-10.734461022949219,-2.006622082519531,-4.573929541015625,0.047519083969465636,0.58843893129771,-0.1264007633587786,0
9749,-10.79671026611328,-2.0233814941406245,-4.6361787841796875,0.0017175572519083637,0.22966030534351156,-0.1416679389312977,0
9774,-10.751220434570314,-2.0377467041015622,-4.564352734375,-0.10515267175572518,0.39759923664122154,-0.18746946564885503,0
9799,-10.73924942626953,-1.9300076293945312,-4.58350634765625,-0.005916030534351191,0.05408778625954214,-0.10350000000000004,0
9824,-10.763191442871094,-1.9635264526367189,-4.669697607421875,-0.10515267175572518,0.13042366412213746,0.13314122137404572,0
9849,-10.808681274414063,-2.0018336791992186,-4.657726599121093,-0.09751908396946563,0.06935496183206125,-0.18746946564885503,0
9874,-10.700942199707033,-2.0114104858398436,-4.6194193725585935,-0.12805343511450384,0.12279007633587802,-0.18746946564885503,0
9899,-10.75361463623047,-2.0233814941406245,-4.6026599609375,0.024618320610687028,-0.2207213740458014,-0.21800381679389325,0
9924,-10.789527661132812,-2.0329583007812495,-4.617025170898438,-0.21202290076335883,-0.04514885496183196,-0.24853816793893124,0
9950,-10.779950854492188,-2.0281698974609372,-4.569141137695312,-0.028816793893129744,0.34416412213740477,-0.1264007633587786,0
9975,-10.75361463623047,-1.9850742675781248,-4.597871557617188,-0.12805343511450384,0.35943129770992366,-0.07296564885496182,0
10000,-10.83022908935547,-1.9563438476562498,-4.571535339355469,-0.1509541984732825,0.489202290076336,-0.17983587786259536,0
10025,-10.712913208007812,-1.9324018310546875,-4.559564331054688,-0.17385496183206106,0.2601946564885498,-0.20273664122137414,0
10050,-10.806287072753907,-1.9491612426757812,-4.657726599121093,0.03988549618320608,0.2754618320610689,-0.2256374045801527,0
10075,-10.799104467773436,-2.0042278808593745,-4.686457019042969,0.024618320610687028,0.37469847328244277,-0.26380534351145035,0
10100,-10.787133459472656,-1.9731032592773439,-4.605054162597656,0.06278625954198469,0.12279007633587802,-0.09586641221374048,0
10125,-10.777556652832033,-1.9970452758789061,-4.557170129394531,-0.01354961832061069,0.15332442748091624,-0.05769847328244282,0
10150,-10.770374047851561,-2.0305640991210936,-4.686457019042969,0.17729007633587784,0.206759541984733,-0.2256374045801527,0
10175,-10.758403039550782,-1.9946510742187498,-4.593083154296875,0.0017175572519083637,0.08462213740458036,-0.1416679389312977,0
10200,-10.808681274414063,-1.9539496459960939,-4.482949877929688,0.0780534351145038,0.3899656488549619,-0.11113358778625948,0
10225,-10.794316064453124,-1.9563438476562498,-4.609842565917969,-0.20438931297709928,0.5808053435114505,-0.019530534351145046,0
10250,-10.777556652832033,-1.9778916625976561,-4.657726599121093,-0.028816793893129744,0.573171755725191,-0.13403435114503826,0
10275,-10.756008837890626,-2.0688713256835936,-4.6026599609375,-0.3646946564885496,0.8632480916030535,-0.04243129770992371,0
10300,-10.75361463623047,-2.047323510742187,-4.715187438964843,-0.12041984732824429,0.5808053435114505,-0.11876717557251915,0
10325,-10.787133459472656,-2.035352502441406,-4.667303405761719,0.2612595419847328,-1.006980916030534,-0.07296564885496182,0
10351,-10.76558564453125,-1.9012772094726562,-4.569141137695312,0.291793893129771,-1.793240458015267,-0.13403435114503826,0
10376,-10.81586387939453,-2.0305640991210936,-4.648149792480469,-0.021183206106870245,0.015919847328244474,0.02627099236641217,0
10401,-10.820652282714843,-2.0305640991210936,-4.648149792480469,0.05515267175572519,0.3670648854961833,0.07970610687022894,0
10426,-10.724884216308592,-1.9611322509765625,-4.564352734375,-0.19675572519083973,0.1762251908396948,-0.05769847328244282,0
10451,-10.799104467773436,-2.0521119140624995,-4.684062817382812,-0.2654580152671756,0.3365305343511451,-0.07296564885496182,0
10476,-10.808681274414063,-2.0616887207031245,-4.7127932373046875,-0.28835877862595427,1.4357671755725192,-0.13403435114503826,0
10501,-10.799104467773436,-2.0233814941406245,-4.6385729858398435,-0.5173664122137405,1.9853854961832063,-0.14930152671755736,0
10526,-10.772768249511717,-2.0018336791992186,-4.617025170898438,-0.19675572519083973,0.7945458015267176,-0.18746946564885503,0
10551,-10.760797241210938,-1.9970452758789061,-4.657726599121093,0.29942748091603055,-1.0298816793893129,-0.27907251908396946,0
10576,-10.770374047851561,-2.025775695800781,-4.765465673828125,0.32996183206106866,-1.2359885496183205,-0.10350000000000004,0
10601,-10.751220434570314,-2.0090162841796873,-4.521257104492188,0.2536259541984732,-1.2665229007633587,-0.05769847328244282,0
10626,-10.767979846191405,-2.0233814941406245,-4.571535339355469,0.3604961832061069,-1.129118320610687,-0.20273664122137414,0
10651,-10.835017492675782,-2.0616887207031245,-4.573929541015625,0.1696564885496183,-0.44209541984732814,-0.27143893129771,0
10676,-10.751220434570314,-1.9635264526367189,-4.6026599609375,-0.1509541984732825,0.6571412213740458,-0.14930152671755736,0
10701,-10.844594299316405,-1.9659206542968748,-4.578717944335938,-0.18148854961832062,0.8861488549618322,-0.19510305343511447,0
10727,-10.813469677734375,-2.025775695800781,-4.547593322753906,-0.44103053435114503,1.4205,-0.2561717557251909,0
10752,-10.724884216308592,-1.9635264526367189,-4.554775927734375,-0.4944656488549618,2.1914923664122137,-0.3172404580152671,0
10777,-10.7847392578125,-1.9419786376953125,-4.684062817382812,-0.5860687022900765,2.0922557251908396,-0.08823282442748093,0
10802,-10.751220434570314,-1.9874684692382811,-4.6744860107421875,-0.3112595419847328,0.6037061068702291,-0.36304198473282445,0
10827,-10.741643627929687,-1.9874684692382811,-4.612236767578125,0.1849236641221374,-0.6863702290076334,-0.011896946564885491,0
10852,-10.763191442871094,-1.9707090576171875,-4.667303405761719,0.41393129770992365,-1.8848435114503816,-0.27143893129771,0
10877,-10.763191442871094,-2.0114104858398436,-4.739129455566406,0.6429389312977098,-2.159652671755725,-0.14930152671755736,0
10902,-10.806287072753907,-2.0497177124023436,-4.662515002441406,0.09332061068702285,-0.9153778625954199,-0.1264007633587786,0
10927,-10.770374047851561,-1.9324018310546875,-4.624207775878906,-0.28835877862595427,1.1838587786259542,-0.21037022900763358,0
10952,-10.717701611328124,-1.9563438476562498,-4.605054162597656,-0.3952290076335878,1.8785152671755725,-0.2561717557251909,0
10977,-10.772768249511717,-2.0425351074218745,-4.688851220703125,-0.4486641221374046,1.1304236641221375,-0.20273664122137414,0
11002,-10.779950854492188,-1.9659206542968748,-4.6361787841796875,-0.2654580152671756,0.7029427480916032,-0.20273664122137414,0
11027,-10.799104467773436,-2.0018336791992186,-4.686457019042969,-0.05935114503816796,0.7334770992366413,-0.08823282442748093,0
11052,-10.83022908935547,-1.9898626708984375,-4.6936396240234375,-0.12805343511450384,1.0464541984732825,-0.13403435114503826,0
11077,-10.698547998046873,-1.9132482177734376,-4.6026599609375,-0.4104961832061069,1.0922557251908398,-0.21037022900763358,0
11103,-10.75361463623047,-1.9563438476562498,-4.6361787841796875,-0.0364503816793893,0.12279007633587802,-0.34777480916030534,0
11128,-10.760797241210938,-1.9491612426757812,-4.614630969238282,0.37576335877862593,-0.9764465648854963,-0.09586641221374048,0
11153,-10.827834887695314,-2.0138046874999995,-4.667303405761719,0.2612595419847328,-1.5565992366412211,0.0033702290076335073,0
11178,-10.787133459472656,-2.0042278808593745,-4.6002657592773435,0.3146946564885496,-1.0833167938931298,-0.11876717557251915,0
11203,-10.844594299316405,-2.0042278808593745,-4.535622314453125,0.13148854961832057,-0.6100343511450381,-0.11113358778625948,0
11228,-10.770374047851561,-2.0377467041015622,-4.617025170898438,-0.06698473282442752,0.2907290076335878,-0.004263358778625936,0
11253,-10.789527661132812,-2.0209872924804686,-4.528439709472656,-0.25782442748091605,0.8632480916030535,-0.10350000000000004,0
11278,-10.746432031249999,-1.9898626708984375,-4.703216430664063,-0.34179389312977104,1.4815687022900765,-0.1264007633587786,0
11303,-10.770374047851561,-2.035352502441406,-4.6194193725585935,-0.28835877862595427,1.2449274809160307,-0.26380534351145035,0
11328,-10.76558564453125,-2.0018336791992186,-4.607448364257812,-0.2196564885496184,1.1762251908396948,-0.050064885496183265,0
11353,-10.727278417968751,-2.0497177124023436,-4.617025170898438,-0.28835877862595427,0.8098129770992367,-0.1416679389312977,0
11378,-10.806287072753907,-2.016198889160156,-4.607448364257812,0.0017175572519083637,0.03118702290076336,-0.19510305343511447,0
11403,-10.715307409667968,-1.9683148559570312,-4.607448364257812,0.10095419847328241,-0.4497290076335876,-0.10350000000000004,0
11429,-10.72009581298828,-2.0425351074218745,-4.631390380859375,0.10858778625954196,-0.7779732824427481,-0.2256374045801527,0
11454,-10.772768249511717,-1.9802858642578125,-4.617025170898438,0.24599236641221373,-0.9917137404580152,-0.13403435114503826,0
11479,-10.746432031249999,-2.0185930908203122,-4.475767272949219,0.13148854961832057,-0.5413320610687022,-0.16456870229007647,0
11504,-10.751220434570314,-2.0042278808593745,-4.688851220703125,-0.028816793893129744,0.3059961832061069,-0.16456870229007647,0
11529,-10.777556652832033,-1.9850742675781248,-4.664909204101562,-0.17385496183206106,0.7945458015267176,-0.0271641221374046,0
11554,-10.729672619628907,-2.035352502441406,-4.573929541015625,-0.3188931297709924,0.7792786259541986,-0.1569351145038168,0
11579,-10.760797241210938,-1.9994394775390625,-4.631390380859375,-0.2196564885496184,0.9014160305343513,-0.16456870229007647,0
11604,-10.794316064453124,-2.0401409057617186,-4.626601977539062,-0.07461832061068707,1.237293893129771,-0.1416679389312977,0
11629,-10.710519006347656,-1.9683148559570312,-4.700822229003906,-0.2349236641221374,0.7945458015267176,-0.17220229007633592,0
11654,-10.746432031249999,-1.9946510742187498,-4.645755590820312,0.016984732824427473,0.237293893129771,-0.14930152671755736,0
11679,-10.763191442871094,-2.083236535644531,-4.69842802734375,0.03225190839694653,-0.4497290076335876,-0.1416679389312977,0
11704,-10.770374047851561,-1.9850742675781248,-4.662515002441406,0.1849236641221374,-0.8619427480916029,-0.19510305343511447,0
11729,-10.79671026611328,-2.006622082519531,-4.6026599609375,0.28416030534351144,-0.5260648854961831,-0.04243129770992371,0
11754,-10.775162451171873,-1.9754974609374998,-4.576323742675781,0.21545801526717556,-0.27415648854961816,-0.1416679389312977,0
11780,-10.794316064453124,-1.9874684692382811,-4.566746936035156,-0.10515267175572518,0.12279007633587802,-0.07296564885496182,0
11805,-10.758403039550782,-1.9874684692382811,-4.6553323974609375,-0.21202290076335883,0.6113396946564886,-0.1416679389312977,0
11830,-10.777556652832033,-2.066477124023437,-4.6194193725585935,0.016984732824427473,0.7182099236641223,-0.26380534351145035,0
11855,-10.803892871093751,-2.0114104858398436,-4.724764245605469,-0.2807251908396947,0.9090496183206108,-0.08823282442748093,0
11880,-10.794316064453124,-1.9683148559570312,-4.6026599609375,-0.24255725190839694,0.9090496183206108,-0.09586641221374048,0
11905,-10.729672619628907,-2.0305640991210936,-4.6409671875,-0.021183206106870245,0.4663015267175573,-0.23327099236641236,0
11930,-10.7847392578125,-1.9707090576171875,-4.617025170898438,-0.08988549618320618,0.206759541984733,-0.10350000000000004,0
11955,-10.79671026611328,-1.9419786376953125,-4.676880212402343,0.22309160305343512,0.13805725190839713,-0.09586641221374048,0
11980,-10.813469677734375,-2.0425351074218745,-4.719975842285156,0.07041984732824424,-0.29705725190839694,-0.16456870229007647,0
12005,-10.734461022949219,-1.9850742675781248,-4.54519912109375,0.13912213740458013,-0.18255343511450373,-0.13403435114503826,0
12030,-10.763191442871094,-2.0209872924804686,-4.5619585327148435,0.32996183206106866,-0.3352251908396946,-0.08059923664122137,0
12055,-10.835017492675782,-1.9922568725585938,-4.6409671875,0.10858778625954196,-0.1367519083969464,-0.1264007633587786,0
12080,-10.770374047851561,-2.0305640991210936,-4.54519912109375,-0.028816793893129744,0.3899656488549619,-0.13403435114503826,0
12105,-10.73924942626953,-1.9539496459960939,-4.521257104492188,-0.08988549618320618,0.4357671755725192,-0.29433969465648857,0
12130,-10.717701611328124,-2.066477124023437,-4.590688952636719,-0.12805343511450384,0.6571412213740458,-0.11113358778625948,0
12155,-10.751220434570314,-1.9347960327148435,-4.54519912109375,-0.2959923664122137,0.5502709923664123,-0.1569351145038168,0
12181,-10.808681274414063,-2.0138046874999995,-4.633784582519532,-0.09751908396946563,0.5044694656488551,-0.355408396946565,0
12206,-10.767979846191405,-1.9802858642578125,-4.739129455566406,0.047519083969465636,0.47393511450381687,-0.17220229007633592,0
12231,-10.736855224609375,-1.9922568725585938,-4.626601977539062,0.10095419847328241,0.12279007633587802,-0.05769847328244282,0
12256,-10.7081248046875,-1.9874684692382811,-4.595477355957032,-0.021183206106870245,-0.22835496183206105,-0.07296564885496182,0
12281,-10.770374047851561,-1.9707090576171875,-4.664909204101562,0.03988549618320608,-0.09095038167938929,-0.14930152671755736,0
12306,-10.751220434570314,-1.9874684692382811,-4.5811121459960935,0.016984732824427473,-0.25888931297709905,-0.11113358778625948,0
12331,-10.76558564453125,-2.0305640991210936,-4.66012080078125,0.07041984732824424,-0.15965267175572517,0.22474427480916026,0
12356,-10.756008837890626,-1.9970452758789061,-4.571535339355469,-0.08225190839694663,0.31362977099236655,-0.08059923664122137,0
12381,-10.799104467773436,-2.0209872924804686,-4.494920886230469,-0.07461832061068707,0.5044694656488551,-0.11876717557251915,0
12406,-10.729672619628907,-2.0329583007812495,-4.595477355957032,-0.1509541984732825,0.38233206106870243,-0.1264007633587786,0
12431,-10.758403039550782,-1.9826800659179689,-4.624207775878906,-0.18148854961832062,0.7334770992366413,-0.20273664122137414,0
12456,-10.772768249511717,-1.9659206542968748,-4.612236767578125,0.03988549618320608,0.5273702290076336,-0.14930152671755736,0
12481,-10.724884216308592,-1.9850742675781248,-4.662515002441406,-0.17385496183206106,0.4357671755725192,-0.21037022900763358,0
12506,-10.746432031249999,-2.076053930664062,-4.612236767578125,-0.021183206106870245,0.03882061068702303,-0.13403435114503826,0
12532,-10.758403039550782,-1.9180366210937498,-4.727158447265625,0.024618320610687028,-0.08331679389312963,-0.11876717557251915,0
12557,-10.775162451171873,-2.0233814941406245,-4.645755590820312,0.0780534351145038,-0.12911832061068695,-0.07296564885496182,0
12582,-10.741643627929687,-2.0185930908203122,-4.645755590820312,0.28416030534351144,0.16095801526717568,-0.3172404580152671,0
12607,-10.801498669433592,-2.044929309082031,-4.650543994140625,0.0017175572519083637,0.0006526717557253647,-0.17220229007633592,0
12632,-10.782345056152344,-2.0592945190429686,-4.624207775878906,-0.2349236641221374,0.09988931297709924,-0.08823282442748093,0
12657,-10.751220434570314,-2.0497177124023436,-4.681668615722656,-0.14332061068702295,0.45866793893129776,-0.16456870229007647,0
12682,-10.775162451171873,-1.9683148559570312,-4.6361787841796875,-0.08225190839694663,0.45866793893129776,-0.11113358778625948,0
12707,-10.76558564453125,-1.9874684692382811,-4.798984497070313,-0.1662213740458015,0.3899656488549619,0.04153816793893128,0
12732,-10.837411694335938,-1.9347960327148435,-4.727158447265625,-0.1662213740458015,0.7411106870229008,-0.24853816793893124,0
12757,-10.808681274414063,-2.0138046874999995,-4.6409671875,-0.028816793893129744,0.47393511450381687,-0.30197328244274824,0
12782,-10.641087158203124,-1.9802858642578125,-4.6553323974609375,-0.0364503816793893,0.09988931297709924,-0.11876717557251915,0
12807,-10.777556652832033,-2.025775695800781,-4.645755590820312,-0.0364503816793893,0.06935496183206125,-0.1264007633587786,0
12832,-10.767979846191405,-1.9994394775390625,-4.557170129394531,0.08568702290076335,0.06935496183206125,-0.14930152671755736,0
12857,-10.818258081054687,-1.9946510742187498,-4.590688952636719,0.016984732824427473,-0.03751526717557252,-0.11876717557251915,0
12882,-10.72009581298828,-2.0090162841796873,-4.6361787841796875,-0.021183206106870245,-0.12148473282442729,-0.13403435114503826,0
12908,-10.748826232910154,-2.0042278808593745,-4.605054162597656,-0.10515267175572518,0.12279007633587802,-0.24853816793893124,0
12933,-10.756008837890626,-2.0425351074218745,-4.50689189453125,0.024618320610687028,0.34416412213740477,-0.13403435114503826,0
12958,-10.756008837890626,-2.035352502441406,-4.6385729858398435,-0.14332061068702295,0.6800419847328245,-0.1416679389312977,0
12983,-10.748826232910154,-2.0042278808593745,-4.719975842285156,0.016984732824427473,0.47393511450381687,-0.21800381679389325,0
13008,-10.808681274414063,-1.9515554443359375,-4.6002657592773435,-0.15858778625954195,0.5426374045801527,-0.33250763358778623,0
13033,-10.775162451171873,-1.9515554443359375,-4.5811121459960935,-0.17385496183206106,0.4510343511450383,-0.17983587786259536,0
13058,-10.748826232910154,-2.0042278808593745,-4.614630969238282,0.07041984732824424,0.06935496183206125,-0.08059923664122137,0
13083,-10.775162451171873,-2.0018336791992186,-4.605054162597656,0.10858778625954196,-0.04514885496183196,-0.17983587786259536,0
13108,-10.741643627929687,-2.0233814941406245,-4.676880212402343,0.13148854961832057,0.06935496183206125,-0.11876717557251915,0
13133,-10.808681274414063,-2.0090162841796873,-4.681668615722656,0.03988549618320608,-0.02224809160305341,-0.10350000000000004,0
13158,-10.76558564453125,-1.9898626708984375,-4.549987524414062,-0.021183206106870245,0.10752290076335891,-0.0271641221374046,0
13183,-10.736855224609375,-2.035352502441406,-4.6744860107421875,0.009351145038167918,0.1762251908396948,-0.17983587786259536,0
13208,-10.775162451171873,-1.9994394775390625,-4.6744860107421875,-0.1509541984732825,0.2754618320610689,-0.1569351145038168,0
13233,-10.744037829589843,-2.0497177124023436,-4.633784582519532,0.13148854961832057,0.3059961832061069,-0.11876717557251915,0
13258,-10.818258081054687,-2.085630737304687,-4.6361787841796875,0.016984732824427473,0.44340076335877876,-0.27907251908396946,0
13283,-10.75361463623047,-1.9371902343749998,-4.530833911132812,-0.19675572519083973,0.489202290076336,-0.19510305343511447,0
13309,-10.741643627929687,-2.044929309082031,-4.626601977539062,0.03225190839694653,0.5502709923664123,-0.11876717557251915,0
13334,-10.758403039550782,-2.044929309082031,-4.667303405761719,0.13148854961832057,0.03882061068702303,-0.1264007633587786,0
13359,-10.73924942626953,-1.9156424194335935,-4.664909204101562,-0.08988549618320618,0.2525610687022901,-0.2409045801526718,0
13384,-10.770374047851561,-1.9946510742187498,-4.662515002441406,0.15438931297709924,0.0006526717557253647,-0.17983587786259536,0
13409,-10.79671026611328,-1.9850742675781248,-4.617025170898438,-0.05935114503816796,0.24492748091603067,-0.1416679389312977,0
13434,-10.827834887695314,-1.9826800659179689,-4.691245422363282,-0.028816793893129744,0.24492748091603067,-0.13403435114503826,0
13459,-10.741643627929687,-2.0377467041015622,-4.607448364257812,0.05515267175572519,0.08462213740458036,-0.11876717557251915,0
13484,-10.758403039550782,-1.9994394775390625,-4.5619585327148435,0.024618320610687028,-0.02224809160305341,-0.3172404580152671,0
13509,-10.73924942626953,-2.0090162841796873,-4.530833911132812,-0.09751908396946563,0.2678282442748092,-0.17220229007633592,0
13534,-10.751220434570314,-1.9778916625976561,-4.609842565917969,-0.17385496183206106,0.5655381679389314,-0.09586641221374048,0
13559,-10.736855224609375,-2.0018336791992186,-4.590688952636719,0.009351145038167918,0.32889694656488566,-0.011896946564885491,0
13584,-10.763191442871094,-2.0329583007812495,-4.6936396240234375,-0.09751908396946563,0.06935496183206125,-0.11876717557251915,0
13609,-10.813469677734375,-2.0209872924804686,-4.633784582519532,-0.05935114503816796,0.1914923664122139,-0.14930152671755736,0
13634,-10.770374047851561,-2.006622082519531,-4.549987524414062,0.024618320610687028,0.11515648854961835,-0.10350000000000004,0
13659,-10.846988500976561,-2.0138046874999995,-4.652938195800782,-0.07461832061068707,0.2678282442748092,-0.034797709923664155,0
13685,-10.794316064453124,-1.9994394775390625,-4.719975842285156,0.10095419847328241,-0.09095038167938929,-0.2256374045801527,0
13710,-10.806287072753907,-2.0018336791992186,-4.6194193725585935,0.047519083969465636,0.06935496183206125,-0.07296564885496182,0
13735,-10.820652282714843,-1.9707090576171875,-4.650543994140625,0.0017175572519083637,0.04645419847328247,-0.034797709923664155,0
13760,-10.832623291015626,-1.9491612426757812,-4.58350634765625,0.0780534351145038,0.18385877862595423,-0.18746946564885503,0
13785,-10.76558564453125,-1.9946510742187498,-4.667303405761719,-0.10515267175572518,0.32889694656488566,-0.004263358778625936,0
13810,-10.729672619628907,-2.016198889160156,-4.7127932373046875,-0.12041984732824429,0.45866793893129776,-0.14930152671755736,0
13835,-10.782345056152344,-2.0018336791992186,-4.605054162597656,-0.01354961832061069,0.2220267175572519,-0.2561717557251909,0
13860,-10.712913208007812,-1.9922568725585938,-4.614630969238282,-0.04408396946564885,0.2754618320610689,-0.034797709923664155,0
13885,-10.763191442871094,-2.0305640991210936,-4.607448364257812,-0.08988549618320618,0.13042366412213746,-0.1416679389312977,0
13910,-10.789527661132812,-1.9946510742187498,-4.681668615722656,0.1849236641221374,0.11515648854961835,-0.1569351145038168,0
13935,-10.715307409667968,-2.006622082519531,-4.657726599121093,0.016984732824427473,0.04645419847328247,-0.21037022900763358,0
13960,-10.751220434570314,-1.9324018310546875,-4.66012080078125,0.05515267175572519,0.1762251908396948,-0.20273664122137414,0
13985,-10.818258081054687,-2.0185930908203122,-4.643361389160156,0.024618320610687028,0.015919847328244474,-0.0271641221374046,0
14010,-10.782345056152344,-2.0305640991210936,-4.657726599121093,-0.05171755725190841,0.10752290076335891,-0.1264007633587786,0
14035,-10.767979846191405,-2.0281698974609372,-4.578717944335938,-0.08225190839694663,0.11515648854961835,-0.24853816793893124,0
14060,-10.777556652832033,-1.9563438476562498,-4.530833911132812,0.016984732824427473,0.5121030534351146,-0.17220229007633592,0
14086,-10.827834887695314,-2.0138046874999995,-4.5260455078125,-0.25782442748091605,0.8250801526717558,-0.08059923664122137,0
14111,-10.794316064453124,-1.9635264526367189,-4.540410717773438,-0.1356870229007634,0.4663015267175573,-0.26380534351145035,0
14136,-10.763191442871094,-2.0138046874999995,-4.597871557617188,-0.01354961832061069,0.21439312977099245,-0.17983587786259536,0
14161,-10.799104467773436,-2.0042278808593745,-4.607448364257812,0.03225190839694653,0.0922557251908398,-0.3096068702290077,0
14186,-10.756008837890626,-2.0233814941406245,-4.684062817382812,0.10095419847328241,-0.06041603053435107,-0.17220229007633592,0
14211,-10.808681274414063,-1.9970452758789061,-4.590688952636719,-0.028816793893129744,0.32889694656488566,-0.17220229007633592,0
14236,-10.763191442871094,-1.9754974609374998,-4.62181357421875,0.024618320610687028,0.21439312977099245,-0.04243129770992371,0
14261,-10.79671026611328,-1.9707090576171875,-4.595477355957032,0.07041984732824424,-0.04514885496183196,-0.20273664122137414,0
14286,-10.79671026611328,-1.9587380493164062,-4.645755590820312,-0.05935114503816796,0.08462213740458036,-0.17983587786259536,0
14311,-10.794316064453124,-2.0090162841796873,-4.605054162597656,-0.10515267175572518,0.05408778625954214,-0.14930152671755736,0
14337,-10.746432031249999,-1.9850742675781248,-4.5619585327148435,-0.12041984732824429,0.47393511450381687,-0.2256374045801527,0
14362,-10.849382702636717,-2.0305640991210936,-4.628996179199219,-0.2349236641221374,0.5502709923664123,-0.20273664122137414,0
14387,-10.775162451171873,-1.9707090576171875,-4.595477355957032,-0.04408396946564885,0.672408396946565,-0.2561717557251909,0
14412,-10.782345056152344,-1.9922568725585938,-4.672091809082032,-0.1356870229007634,0.42813358778625965,-0.2256374045801527,0
14437,-10.787133459472656,-1.9898626708984375,-4.667303405761719,-0.08225190839694663,0.2601946564885498,-0.2867061068702291,0
14462,-10.777556652832033,-2.0281698974609372,-4.6385729858398435,0.0780534351145038,0.03882061068702303,-0.16456870229007647,0
14487,-10.741643627929687,-1.9874684692382811,-4.595477355957032,0.03988549618320608,-0.06804961832061052,-0.07296564885496182,0
14512,-10.806287072753907,-1.9754974609374998,-4.672091809082032,0.12385496183206107,-0.27415648854961816,-0.050064885496183265,0
14537,-10.770374047851561,-2.0688713256835936,-4.588294750976562,0.10095419847328241,0.023553435114503918,-0.1264007633587786,0
14562,-10.763191442871094,-1.9802858642578125,-4.605054162597656,-0.05935114503816796,0.12279007633587802,-0.21037022900763358,0
14587,-10.827834887695314,-2.1071785522460935,-4.657726599121093,0.016984732824427473,0.34416412213740477,-0.17983587786259536,0
14612,-10.73924942626953,-2.035352502441406,-4.576323742675781,-0.08988549618320618,0.7411106870229008,-0.08823282442748093,0
14637,-10.779950854492188,-1.9108540161132812,-4.6194193725585935,-0.10515267175572518,0.6342404580152673,-0.2867061068702291,0
14662,-10.715307409667968,-1.9754974609374998,-4.6936396240234375,-0.17385496183206106,0.5960725190839695,-0.17220229007633592,0
14688,-10.818258081054687,-1.9659206542968748,-4.6385729858398435,-0.0364503816793893,0.22966030534351156,-0.2256374045801527,0
14713,-10.741643627929687,-2.006622082519531,-4.576323742675781,-0.09751908396946563,0.16095801526717568,-0.19510305343511447,0
14738,-10.803892871093751,-1.9491612426757812,-4.657726599121093,-0.18148854961832062,-0.08331679389312963,-0.034797709923664155,0
14763,-10.758403039550782,-1.9707090576171875,-4.624207775878906,0.0780534351145038,-0.29705725190839694,-0.21800381679389325,0
14788,-10.710519006347656,-1.9946510742187498,-4.628996179199219,-0.07461832061068707,-0.08331679389312963,-0.2409045801526718,0
14813,-10.777556652832033,-2.0018336791992186,-4.578717944335938,-0.005916030534351191,-0.09095038167938929,-0.14930152671755736,0
14838,-10.801498669433592,-1.9898626708984375,-4.6409671875,-0.021183206106870245,0.08462213740458036,-0.09586641221374048,0
14863,-10.825440686035154,-2.0497177124023436,-4.607448364257812,-0.021183206106870245,0.3517977099236642,-0.21037022900763358,0
14888,-10.76558564453125,-2.0281698974609372,-4.696033825683593,-0.4333969465648855,0.6113396946564886,-0.21037022900763358,0
14913,-10.76558564453125,-2.0138046874999995,-4.549987524414062,-0.12041984732824429,0.5426374045801527,-0.08059923664122137,0
14938,-10.827834887695314,-2.044929309082031,-4.588294750976562,0.024618320610687028,0.47393511450381687,-0.13403435114503826,0
14963,-10.79671026611328,-2.0114104858398436,-4.595477355957032,0.03988549618320608,0.37469847328244277,-0.1264007633587786,0
14988,-10.763191442871094,-1.9946510742187498,-4.643361389160156,0.047519083969465636,0.1914923664122139,-0.16456870229007647,0
15013,-10.782345056152344,-1.9635264526367189,-4.595477355957032,0.10858778625954196,0.06172137404580158,-0.3248740458015268,0
15039,-10.787133459472656,-1.9754974609374998,-4.7103990356445316,0.0780534351145038,-0.11385114503816784,-0.26380534351145035,0
15064,-10.756008837890626,-1.9635264526367189,-4.624207775878906,0.10858778625954196,-0.1520190839694655,-0.23327099236641236,0
15089,-10.777556652832033,-2.0281698974609372,-4.569141137695312,0.009351145038167918,-0.45736259541984725,-0.09586641221374048,0
15114,-10.672211779785155,-2.0281698974609372,-4.50689189453125,-0.07461832061068707,0.10752290076335891,-0.11113358778625948,0
15139,-10.83022908935547,-1.9778916625976561,-4.578717944335938,-0.0364503816793893,0.5350038167938932,-0.23327099236641236,0
15164,-10.799104467773436,-1.9802858642578125,-4.676880212402343,-0.05935114503816796,0.5197366412213742,-0.1569351145038168,0
15189,-10.825440686035154,-2.0616887207031245,-4.612236767578125,-0.04408396946564885,0.4357671755725192,-0.11876717557251915,0
15214,-10.79671026611328,-2.006622082519531,-4.6744860107421875,-0.21202290076335883,0.5350038167938932,-0.11113358778625948,0
15239,-10.763191442871094,-1.9635264526367189,-4.609842565917969,-0.19675572519083973,0.5426374045801527,-0.04243129770992371,0
15264,-10.698547998046873,-2.016198889160156,-4.7103990356445316,-0.2196564885496184,0.24492748091603067,-0.19510305343511447,0
15289,-10.758403039550782,-1.9970452758789061,-4.605054162597656,-0.028816793893129744,0.05408778625954214,-0.2256374045801527,0
15314,-10.722490014648436,-2.0233814941406245,-4.595477355957032,0.10095419847328241,-0.11385114503816784,-0.08823282442748093,0
15339,-10.789527661132812,-2.0233814941406245,-4.6409671875,0.016984732824427473,0.008286259541984808,-0.17220229007633592,0
15364,-10.76558564453125,-1.9635264526367189,-4.573929541015625,0.047519083969465636,0.08462213740458036,-0.1264007633587786,0
15389,-10.734461022949219,-1.9922568725585938,-4.585900549316406,-0.01354961832061069,0.03882061068702303,-0.06533206106870237,0
15415,-10.811075476074219,-2.006622082519531,-4.609842565917969,0.06278625954198469,0.16859160305343512,-0.23327099236641236,0
15440,-10.791921862792968,-2.076053930664062,-4.643361389160156,-0.08225190839694663,0.35943129770992366,-0.2256374045801527,0
15465,-10.770374047851561,-1.9731032592773439,-4.588294750976562,-0.17385496183206106,0.5579045801526719,-0.1569351145038168,0
15490,-10.825440686035154,-2.0209872924804686,-4.66012080078125,-0.24255725190839694,0.6266068702290077,-0.14930152671755736,0
15515,-10.724884216308592,-1.9754974609374998,-4.6194193725585935,-0.0364503816793893,0.29836259541984744,-0.16456870229007647,0
15540,-10.744037829589843,-1.9946510742187498,-4.566746936035156,-0.04408396946564885,0.03882061068702303,-0.27907251908396946,0
15565,-10.758403039550782,-1.9635264526367189,-4.5428049194335935,0.07041984732824424,0.3365305343511451,-0.07296564885496182,0
15590,-10.787133459472656,-2.0209872924804686,-4.609842565917969,-0.15858778625954195,0.6418740458015268,-0.13403435114503826,0
15615,-10.746432031249999,-1.9946510742187498,-4.628996179199219,0.1696564885496183,0.015919847328244474,-0.14930152671755736,0
15640,-10.79671026611328,-2.0281698974609372,-4.652938195800782,0.12385496183206107,-0.2512557251908396,-0.1264007633587786,0
15665,-10.72009581298828,-2.0138046874999995,-4.7103990356445316,0.009351145038167918,-0.19018702290076317,-0.14930152671755736,0
15690,-10.729672619628907,-1.9778916625976561,-4.549987524414062,-0.22729007633587783,0.31362977099236655,-0.1264007633587786,0
15715,-10.789527661132812,-1.9683148559570312,-4.700822229003906,-0.0364503816793893,0.2678282442748092,-0.13403435114503826,0
15740,-10.782345056152344,-2.0209872924804686,-4.617025170898438,0.05515267175572519,0.10752290076335891,-0.05769847328244282,0
15765,-10.779950854492188,-2.0521119140624995,-4.628996179199219,-0.11278625954198473,0.6037061068702291,-0.10350000000000004,0
15790,-10.756008837890626,-1.9611322509765625,-4.578717944335938,0.03988549618320608,0.5808053435114505,-0.08823282442748093,0
15816,-10.717701611328124,-1.9731032592773439,-4.696033825683593,-0.14332061068702295,0.3059961832061069,-0.1264007633587786,0
15841,-10.748826232910154,-1.9970452758789061,-4.588294750976562,0.047519083969465636,0.405232824427481,-0.10350000000000004,0
15866,-10.782345056152344,-2.0209872924804686,-4.571535339355469,0.10858778625954196,0.015919847328244474,-0.23327099236641236,0
15891,-10.763191442871094,-2.0329583007812495,-4.6744860107421875,-0.05171755725190841,-0.03751526717557252,-0.2256374045801527,0
15916,-10.837411694335938,-2.0114104858398436,-4.533228112792969,0.024618320610687028,0.1762251908396948,-0.11876717557251915,0
15941,-10.791921862792968,-2.006622082519531,-4.6194193725585935,0.05515267175572519,0.2754618320610689,-0.13403435114503826,0
15966,-10.734461022949219,-1.9778916625976561,-4.643361389160156,0.17729007633587784,0.05408778625954214,-0.11876717557251915,0
15991,-10.799104467773436,-2.025775695800781,-4.5811121459960935,0.03988549618320608,0.3059961832061069,-0.2867061068702291,0
16016,-10.81586387939453,-2.0329583007812495,-4.667303405761719,-0.028816793893129744,0.4510343511450383,-0.17983587786259536,0
16041,-10.758403039550782,-1.9611322509765625,-4.597871557617188,0.047519083969465636,0.2907290076335878,-0.07296564885496182,0
16066,-10.832623291015626,-2.0209872924804686,-4.6385729858398435,-0.21202290076335883,0.14569083969465657,-0.1264007633587786,0
16091,-10.835017492675782,-1.9922568725585938,-4.631390380859375,-0.04408396946564885,0.237293893129771,-0.2256374045801527,0
16116,-10.693759594726561,-1.9683148559570312,-4.6361787841796875,-0.06698473282442752,0.2907290076335878,-0.08059923664122137,0
16141,-10.854171105957032,-2.016198889160156,-4.631390380859375,0.009351145038167918,0.32889694656488566,-0.13403435114503826,0
16166,-10.7847392578125,-2.0185930908203122,-4.669697607421875,0.10858778625954196,0.13805725190839713,-0.2867061068702291,0
16192,-10.76558564453125,-1.9587380493164062,-4.612236767578125,-0.005916030534351191,-0.19018702290076317,-0.23327099236641236,0
16217,-10.794316064453124,-1.9826800659179689,-4.58350634765625,-0.08225190839694663,-0.1520190839694655,-0.05769847328244282,0
16242,-10.741643627929687,-2.0042278808593745,-4.588294750976562,-0.09751908396946563,0.15332442748091624,-0.10350000000000004,0
16267,-10.835017492675782,-1.9587380493164062,-4.571535339355469,-0.08225190839694663,0.31362977099236655,-0.16456870229007647,0
16292,-10.779950854492188,-1.9563438476562498,-4.657726599121093,0.09332061068702285,0.2220267175572519,-0.21037022900763358,0
16317,-10.763191442871094,-2.025775695800781,-4.593083154296875,0.12385496183206107,0.13042366412213746,-0.11876717557251915,0
16342,-10.806287072753907,-1.9467670410156248,-4.6409671875,-0.06698473282442752,0.5579045801526719,-0.050064885496183265,0
16367,-10.756008837890626,-1.9826800659179689,-4.590688952636719,-0.12041984732824429,0.6876755725190841,-0.19510305343511447,0
16392,-10.763191442871094,-2.0281698974609372,-4.6194193725585935,0.05515267175572519,0.0922557251908398,-0.16456870229007647,0
16417,-10.81586387939453,-1.9802858642578125,-4.645755590820312,-0.11278625954198473,-0.12911832061068695,-0.08059923664122137,0
16442,-10.799104467773436,-1.9659206542968748,-4.633784582519532,-0.0364503816793893,0.47393511450381687,-0.13403435114503826,0
16467,-10.791921862792968,-2.016198889160156,-4.645755590820312,0.06278625954198469,0.4815687022900764,-0.1264007633587786,0
16492,-10.777556652832033,-1.9754974609374998,-4.5428049194335935,-0.06698473282442752,0.07698854961832069,-0.18746946564885503,0
16517,-10.791921862792968,-2.0329583007812495,-4.595477355957032,0.08568702290076335,0.19912595419847334,-0.1569351145038168,0
16543,-10.7847392578125,-1.9778916625976561,-4.6194193725585935,-0.1356870229007634,-0.14438549618320606,-0.21037022900763358,0
16568,-10.744037829589843,-1.9802858642578125,-4.617025170898438,-0.05171755725190841,0.1914923664122139,-0.1264007633587786,0
16593,-10.799104467773436,-1.9563438476562498,-4.6194193725585935,0.03988549618320608,0.39759923664122154,-0.2409045801526718,0
16618,-10.79671026611328,-2.0090162841796873,-4.628996179199219,0.016984732824427473,0.12279007633587802,-0.2256374045801527,0
16643,-10.791921862792968,-1.9826800659179689,-4.657726599121093,0.10095419847328241,0.06172137404580158,-0.034797709923664155,0
16668,-10.789527661132812,-1.9874684692382811,-4.672091809082032,0.03988549618320608,0.03882061068702303,-0.034797709923664155,0
16693,-10.806287072753907,-2.083236535644531,-4.667303405761719,-0.08225190839694663,0.4357671755725192,-0.17220229007633592,0
16718,-10.811075476074219,-2.025775695800781,-4.664909204101562,-0.028816793893129744,0.5960725190839695,-0.21037022900763358,0
16743,-10.7847392578125,-1.9635264526367189,-4.6409671875,0.03988549618320608,0.4815687022900764,0.0033702290076335073,0
16768,-10.729672619628907,-1.9802858642578125,-4.62181357421875,0.0017175572519083637,0.14569083969465657,-0.034797709923664155,0
16793,-10.787133459472656,-1.9563438476562498,-4.595477355957032,-0.08988549618320618,0.09988931297709924,-0.21037022900763358,0
16818,-10.715307409667968,-1.9515554443359375,-4.607448364257812,-0.005916030534351191,-0.07568320610687018,-0.1569351145038168,0
16843,-10.73924942626953,-1.9946510742187498,-4.684062817382812,0.15438931297709924,0.12279007633587802,-0.20273664122137414,0
16868,-10.736855224609375,-2.0138046874999995,-4.612236767578125,0.024618320610687028,0.2678282442748092,-0.1416679389312977,0
16893,-10.698547998046873,-2.0018336791992186,-4.6409671875,-0.06698473282442752,0.19912595419847334,-0.07296564885496182,0
16919,-10.803892871093751,-2.0425351074218745,-4.590688952636719,0.047519083969465636,0.05408778625954214,-0.11113358778625948,0
16944,-10.751220434570314,-2.016198889160156,-4.557170129394531,-0.11278625954198473,0.2678282442748092,-0.1264007633587786,0
16969,-10.758403039550782,-2.0209872924804686,-4.676880212402343,-0.04408396946564885,0.13805725190839713,-0.13403435114503826,0
16994,-10.811075476074219,-2.0042278808593745,-4.652938195800782,-0.04408396946564885,0.44340076335877876,0.018637404580152617,0
17019,-10.799104467773436,-2.0688713256835936,-4.58350634765625,-0.18912213740458017,0.34416412213740477,-0.08823282442748093,0
17044,-10.832623291015626,-2.0377467041015622,-4.631390380859375,-0.06698473282442752,0.4357671755725192,-0.20273664122137414,0
17069,-10.794316064453124,-2.047323510742187,-4.5811121459960935,-0.04408396946564885,0.7487442748091604,-0.11876717557251915,0
17094,-10.715307409667968,-1.9515554443359375,-4.676880212402343,-0.18912213740458017,0.31362977099236655,-0.1569351145038168,0
17119,-10.722490014648436,-1.9946510742187498,-4.605054162597656,-0.05935114503816796,-0.37339312977099226,-0.05769847328244282,0
17144,-10.83022908935547,-2.016198889160156,-4.6002657592773435,0.1925572519083969,-0.5565992366412214,-0.07296564885496182,0
17169,-10.808681274414063,-1.9970452758789061,-4.578717944335938,-0.021183206106870245,-0.03751526717557252,-0.1569351145038168,0
17194,-10.794316064453124,-1.9754974609374998,-4.664909204101562,-0.021183206106870245,0.3059961832061069,-0.16456870229007647,0
17219,-10.806287072753907,-1.9994394775390625,-4.566746936035156,0.047519083969465636,0.2907290076335878,-0.09586641221374048,0
17244,-10.81586387939453,-2.0018336791992186,-4.734341052246093,-0.08988549618320618,0.2754618320610689,-0.1569351145038168,0
17269,-10.811075476074219,-1.9659206542968748,-4.605054162597656,0.024618320610687028,0.6266068702290077,-0.1264007633587786,0
17294,-10.741643627929687,-1.9611322509765625,-4.66012080078125,-0.05935114503816796,0.6800419847328245,-0.07296564885496182,0
17320,-10.727278417968751,-1.9419786376953125,-4.523651306152344,0.016984732824427473,0.06935496183206125,-0.19510305343511447,0
17345,-10.767979846191405,-1.9898626708984375,-4.612236767578125,0.009351145038167918,-0.4191946564885496,-0.17983587786259536,0
17370,-10.837411694335938,-1.9994394775390625,-4.708004833984375,0.0017175572519083637,-0.06804961832061052,-0.17983587786259536,0
17395,-10.791921862792968,-2.0042278808593745,-4.5811121459960935,-0.15858778625954195,0.7334770992366413,0.011003816793893062,0
17420,-10.73924942626953,-1.9826800659179689,-4.590688952636719,-0.17385496183206106,0.5044694656488551,-0.1569351145038168,0
17445,-10.760797241210938,-2.0377467041015622,-4.58350634765625,0.1696564885496183,-0.42682824427480903,-0.2561717557251909,0
17470,-10.772768249511717,-2.0281698974609372,-4.576323742675781,0.0017175572519083637,-0.21308778625954194,-0.1264007633587786,0
17495,-10.787133459472656,-2.0377467041015622,-4.669697607421875,-0.05935114503816796,0.5426374045801527,-0.05769847328244282,0
17520,-10.777556652832033,-2.0018336791992186,-4.494920886230469,-0.2196564885496184,0.4205000000000001,-0.09586641221374048,0
17545,-10.813469677734375,-2.0185930908203122,-4.595477355957032,-0.25782442748091605,0.06935496183206125,-0.06533206106870237,0
17570,-10.712913208007812,-2.0018336791992186,-4.6744860107421875,-0.021183206106870245,0.4357671755725192,-0.050064885496183265,0
17595,-10.825440686035154,-1.9946510742187498,-4.547593322753906,0.12385496183206107,0.3517977099236642,-0.1416679389312977,0
17620,-10.81586387939453,-1.9731032592773439,-4.631390380859375,-0.07461832061068707,0.3365305343511451,-0.11876717557251915,0
17645,-10.756008837890626,-2.0521119140624995,-4.631390380859375,-0.1356870229007634,0.45866793893129776,-0.17983587786259536,0
17670,-10.744037829589843,-2.0305640991210936,-4.6385729858398435,-0.11278625954198473,0.13042366412213746,-0.07296564885496182,0
17696,-10.799104467773436,-1.9228250244140626,-4.6002657592773435,0.13148854961832057,-0.44209541984732814,-0.23327099236641236,0
17721,-10.729672619628907,-1.9946510742187498,-4.62181357421875,0.09332061068702285,-0.6558358778625952,-0.1416679389312977,0
17746,-10.772768249511717,-1.9970452758789061,-4.612236767578125,-0.10515267175572518,-0.04514885496183196,-0.14930152671755736,0
17771,-10.7847392578125,-2.006622082519531,-4.617025170898438,-0.20438931297709928,0.6189732824427482,-0.08823282442748093,0
17796,-10.885295727539063,-2.0090162841796873,-4.652938195800782,-0.15858778625954195,0.8403473282442749,-0.1569351145038168,0
17821,-10.806287072753907,-2.0425351074218745,-4.62181357421875,-0.2501908396946565,0.9853854961832063,-0.19510305343511447,0
17846,-10.81586387939453,-2.1071785522460935,-4.607448364257812,-0.12805343511450384,0.3670648854961833,-0.2256374045801527,0
17871,-10.81586387939453,-2.0185930908203122,-4.676880212402343,-0.05935114503816796,-0.4802633587786258,-0.23327099236641236,0
17896,-10.729672619628907,-1.9611322509765625,-4.6026599609375,0.05515267175572519,-0.678736641221374,-0.26380534351145035,0
17921,-10.669817578124999,-1.9994394775390625,-4.705610632324219,0.03988549618320608,-0.07568320610687018,-0.1569351145038168,0
17946,-10.767979846191405,-1.9874684692382811,-4.578717944335938,0.07041984732824424,-0.4649961832061067,-0.2409045801526718,0
17971,-10.818258081054687,-1.9922568725585938,-4.6553323974609375,0.10095419847328241,-0.2512557251908396,-0.0271641221374046,0
17996,-10.839805895996093,-2.047323510742187,-4.626601977539062,-0.06698473282442752,0.6342404580152673,-0.27907251908396946,0
18021,-10.87332471923828,-1.9491612426757812,-4.624207775878906,0.06278625954198469,0.5044694656488551,-0.17983587786259536,0
18046,-10.767979846191405,-1.9754974609374998,-4.652938195800782,-0.1356870229007634,0.7334770992366413,-0.0271641221374046,0
18072,-10.727278417968751,-2.0377467041015622,-4.5811121459960935,-0.3112595419847328,0.9777519083969466,-0.14930152671755736,0
18097,-10.799104467773436,-1.9539496459960939,-4.617025170898438,-0.20438931297709928,0.5426374045801527,-0.18746946564885503,0
18122,-10.779950854492188,-2.054506115722656,-4.612236767578125,-0.15858778625954195,0.3670648854961833,-0.09586641221374048,0
18147,-10.736855224609375,-1.9946510742187498,-4.5811121459960935,-0.05935114503816796,-0.19782061068702284,-0.17220229007633592,0
18172,-10.76558564453125,-2.0042278808593745,-4.705610632324219,0.10095419847328241,-0.3046908396946564,-0.14930152671755736,0
18197,-10.806287072753907,-1.9731032592773439,-4.590688952636719,0.23072519083969464,-0.3810267175572517,-0.08059923664122137,0
18222,-10.7847392578125,-2.0185930908203122,-4.607448364257812,-0.0364503816793893,-0.31232442748091604,-0.21037022900763358,0
18247,-10.844594299316405,-2.066477124023437,-4.573929541015625,0.07041984732824424,-0.08331679389312963,-0.29433969465648857,0
18272,-10.79671026611328,-2.0233814941406245,-4.676880212402343,-0.17385496183206106,0.34416412213740477,-0.24853816793893124,0
18297,-10.787133459472656,-2.0592945190429686,-4.566746936035156,-0.14332061068702295,0.672408396946565,-0.11876717557251915,0
18322,-10.76558564453125,-2.0018336791992186,-4.6194193725585935,-0.10515267175572518,0.24492748091603067,-0.1416679389312977,0
18347,-10.717701611328124,-2.0090162841796873,-4.528439709472656,-0.17385496183206106,0.6113396946564886,-0.09586641221374048,0
18372,-10.770374047851561,-1.9611322509765625,-4.612236767578125,-0.19675572519083973,0.8174465648854963,-0.23327099236641236,0
18397,-10.73924942626953,-2.0090162841796873,-4.6385729858398435,0.03988549618320608,0.7105763358778627,-0.26380534351145035,0
18422,-10.777556652832033,-2.056900317382812,-4.6409671875,-0.08988549618320618,0.14569083969465657,-0.20273664122137414,0
18448,-10.729672619628907,-1.9970452758789061,-4.595477355957032,-0.17385496183206106,0.0922557251908398,-0.050064885496183265,0
18473,-10.782345056152344,-1.9611322509765625,-4.6026599609375,0.047519083969465636,-0.38866030534351137,-0.13403435114503826,0
18498,-10.825440686035154,-2.056900317382812,-4.578717944335938,0.047519083969465636,0.0006526717557253647,-0.27143893129771,0
18523,-10.844594299316405,-2.0329583007812495,-4.626601977539062,0.13148854961832057,-0.06041603053435107,-0.27907251908396946,0
18548,-10.787133459472656,-2.0209872924804686,-4.688851220703125,0.03988549618320608,-0.12148473282442729,-0.11113358778625948,0
18573,-10.770374047851561,-2.0042278808593745,-4.547593322753906,0.07041984732824424,0.08462213740458036,-0.11876717557251915,0
18598,-10.746432031249999,-1.9994394775390625,-4.652938195800782,-0.07461832061068707,0.45866793893129776,-0.17220229007633592,0
18623,-10.75361463623047,-2.006622082519531,-4.590688952636719,-0.18912213740458017,0.7640114503816795,-0.2561717557251909,0
18648,-10.782345056152344,-2.0425351074218745,-4.573929541015625,-0.021183206106870245,0.7334770992366413,-0.2256374045801527,0
18674,-10.806287072753907,-2.0042278808593745,-4.612236767578125,-0.0364503816793893,0.6113396946564886,-0.1264007633587786,0
18699,-10.794316064453124,-2.0233814941406245,-4.672091809082032,-0.12041984732824429,0.2678282442748092,0.09497328244274805,0
18724,-10.777556652832033,-1.9874684692382811,-4.664909204101562,-0.06698473282442752,0.38233206106870243,-0.14930152671755736,0
18749,-10.734461022949219,-2.0521119140624995,-4.672091809082032,0.13148854961832057,0.008286259541984808,-0.17220229007633592,0
18774,-10.722490014648436,-2.0425351074218745,-4.530833911132812,0.024618320610687028,0.0922557251908398,-0.2256374045801527,0
18799,-10.787133459472656,-1.9515554443359375,-4.6744860107421875,0.10858778625954196,0.015919847328244474,-0.17983587786259536,0
18824,-10.79671026611328,-1.9539496459960939,-4.612236767578125,0.03988549618320608,-0.1520190839694655,-0.09586641221374048,0
18849,-10.787133459472656,-2.0185930908203122,-4.6361787841796875,0.03225190839694653,-0.02224809160305341,-0.11113358778625948,0
18874,-10.748826232910154,-1.9635264526367189,-4.588294750976562,0.0017175572519083637,0.321263358778626,-0.1264007633587786,0
18899,-10.84220009765625,-1.9419786376953125,-4.573929541015625,0.07041984732824424,0.4663015267175573,-0.17983587786259536,0
18924,-10.715307409667968,-1.9778916625976561,-4.593083154296875,-0.20438931297709928,0.2678282442748092,-0.2561717557251909,0
18949,-10.760797241210938,-1.9946510742187498,-4.590688952636719,-0.22729007633587783,0.7334770992366413,-0.08823282442748093,0
18974,-10.779950854492188,-1.9659206542968748,-4.617025170898438,-0.06698473282442752,0.5350038167938932,-0.1416679389312977,0
18999,-10.789527661132812,-1.9850742675781248,-4.66012080078125,-0.28835877862595427,0.41286641221374065,-0.19510305343511447,0
19024,-10.72009581298828,-2.0401409057617186,-4.664909204101562,-0.04408396946564885,0.08462213740458036,-0.1264007633587786,0
19049,-10.813469677734375,-2.054506115722656,-4.6385729858398435,-0.08225190839694663,-0.11385114503816784,-0.21037022900763358,0
19075,-10.760797241210938,-2.0401409057617186,-4.516468701171875,-0.07461832061068707,-0.03751526717557252,-0.1416679389312977,0
19100,-10.772768249511717,-2.025775695800781,-4.595477355957032,-0.01354961832061069,0.14569083969465657,-0.17983587786259536,0
19125,-10.729672619628907,-2.0185930908203122,-4.624207775878906,-0.005916030534351191,-0.08331679389312963,-0.2409045801526718,0
19150,-10.751220434570314,-2.0114104858398436,-4.705610632324219,-0.04408396946564885,0.015919847328244474,-0.050064885496183265,0
19175,-10.81586387939453,-1.9659206542968748,-4.626601977539062,-0.11278625954198473,0.2525610687022901,0.04153816793893128,0
19200,-10.825440686035154,-2.0281698974609372,-4.509286096191406,-0.05935114503816796,0.405232824427481,-0.2256374045801527,0
19225,-10.767979846191405,-2.0138046874999995,-4.607448364257812,-0.08988549618320618,0.58843893129771,-0.21800381679389325,0
19250,-10.758403039550782,-2.047323510742187,-4.667303405761719,-0.0364503816793893,0.3517977099236642,-0.019530534351145046,0
19275,-10.76558564453125,-1.9922568725585938,-4.58350634765625,-0.1509541984732825,0.2525610687022901,-0.11113358778625948,0
19300,-10.758403039550782,-2.0305640991210936,-4.676880212402343,-0.08225190839694663,0.4357671755725192,-0.13403435114503826,0
19325,-10.782345056152344,-2.0138046874999995,-4.664909204101562,0.03225190839694653,0.37469847328244277,-0.1416679389312977,0
19350,-10.75361463623047,-2.035352502441406,-4.5811121459960935,0.0780534351145038,0.15332442748091624,-0.17983587786259536,0
19375,-10.777556652832033,-1.9994394775390625,-4.664909204101562,0.03988549618320608,-0.04514885496183196,-0.18746946564885503,0
19400,-10.772768249511717,-2.0185930908203122,-4.578717944335938,0.08568702290076335,-0.02224809160305341,-0.1569351145038168,0
19425,-10.803892871093751,-1.9707090576171875,-4.66012080078125,0.03988549618320608,-0.14438549618320606,0.0033702290076335073,0
19450,-10.763191442871094,-1.9731032592773439,-4.631390380859375,-0.12805343511450384,0.34416412213740477,-0.08059923664122137,0
19475,-10.787133459472656,-1.9515554443359375,-4.617025170898438,-0.08225190839694663,0.34416412213740477,-0.24853816793893124,0
19501,-10.727278417968751,-2.056900317382812,-4.571535339355469,-0.08988549618320618,0.32889694656488566,-0.1264007633587786,0
19526,-10.763191442871094,-1.9946510742187498,-4.571535339355469,-0.07461832061068707,0.10752290076335891,-0.17983587786259536,0
19551,-10.782345056152344,-2.047323510742187,-4.672091809082032,0.03225190839694653,0.5273702290076336,-0.13403435114503826,0
19576,-10.823046484374998,-1.9683148559570312,-4.650543994140625,-0.10515267175572518,0.4510343511450383,-0.19510305343511447,0
19601,-10.81586387939453,-1.9826800659179689,-4.576323742675781,0.047519083969465636,0.4205000000000001,-0.23327099236641236,0
19626,-10.767979846191405,-2.0401409057617186,-4.6409671875,-0.01354961832061069,0.2678282442748092,-0.21800381679389325,0
19651,-10.813469677734375,-2.006622082519531,-4.628996179199219,0.10095419847328241,0.24492748091603067,-0.18746946564885503,0
19676,-10.779950854492188,-1.9707090576171875,-4.6361787841796875,-0.01354961832061069,-0.09095038167938929,-0.11876717557251915,0
19701,-10.751220434570314,-1.9635264526367189,-4.648149792480469,0.0017175572519083637,0.015919847328244474,-0.27143893129771,0
19726,-10.811075476074219,-1.9922568725585938,-4.5619585327148435,0.11622137404580152,0.12279007633587802,-0.0271641221374046,0
19751,-10.73924942626953,-2.006622082519531,-4.614630969238282,0.0780534351145038,0.16095801526717568,-0.1264007633587786,0
19776,-10.76558564453125,-2.0305640991210936,-4.662515002441406,0.07041984732824424,0.34416412213740477,-0.1264007633587786,0
19801,-10.73924942626953,-2.0377467041015622,-4.597871557617188,-0.2196564885496184,0.2525610687022901,-0.14930152671755736,0
19826,-10.789527661132812,-1.9778916625976561,-4.688851220703125,-0.14332061068702295,0.42813358778625965,-0.16456870229007647,0
19851,-10.760797241210938,-2.0018336791992186,-4.552381726074219,-0.01354961832061069,0.39759923664122154,-0.2561717557251909,0
19876,-10.767979846191405,-1.9970452758789061,-4.607448364257812,-0.11278625954198473,0.34416412213740477,-0.13403435114503826,0
19902,-10.770374047851561,-2.0401409057617186,-4.609842565917969,0.03988549618320608,0.47393511450381687,-0.27143893129771,0
19927,-10.751220434570314,-1.9994394775390625,-4.6361787841796875,0.06278625954198469,-0.06041603053435107,-0.27143893129771,0
19952,-10.763191442871094,-1.9778916625976561,-4.633784582519532,-0.005916030534351191,-0.07568320610687018,-0.1569351145038168,0
19977,-10.760797241210938,-2.0090162841796873,-4.681668615722656,0.10095419847328241,0.21439312977099245,-0.06533206106870237,0
20002,-10.7847392578125,-2.0425351074218745,-4.612236767578125,-0.07461832061068707,-0.04514885496183196,-0.0271641221374046,0
20027,-10.748826232910154,-1.9826800659179689,-4.578717944335938,-0.21202290076335883,0.06935496183206125,0.11024045801526716,0
20052,-10.770374047851561,-1.9539496459960939,-4.676880212402343,0.09332061068702285,0.1762251908396948,-0.10350000000000004,0
20077,-10.703336401367189,-1.9635264526367189,-4.607448364257812,-0.08988549618320618,0.37469847328244277,-0.11113358778625948,0
20102,-10.777556652832033,-2.0305640991210936,-4.631390380859375,-0.25782442748091605,0.2601946564885498,-0.1264007633587786,0
20127,-10.729672619628907,-2.0329583007812495,-4.741523657226563,0.009351145038167918,0.4357671755725192,-0.034797709923664155,0
20152,-10.684182788085938,-1.9994394775390625,-4.667303405761719,0.06278625954198469,0.4663015267175573,-0.05769847328244282,0
20177,-10.79671026611328,-1.9635264526367189,-4.645755590820312,-0.01354961832061069,0.3670648854961833,-0.019530534351145046,0
20202,-10.777556652832033,-1.9731032592773439,-4.7487062622070315,-0.021183206106870245,-0.1062175572519084,-0.07296564885496182,0
20227,-10.823046484374998,-1.9778916625976561,-4.557170129394531,-0.005916030534351191,0.03882061068702303,-0.13403435114503826,0
20252,-10.799104467773436,-2.0042278808593745,-4.798984497070313,0.024618320610687028,0.2220267175572519,-0.18746946564885503,0
20277,-10.758403039550782,-2.0233814941406245,-4.576323742675781,-0.04408396946564885,0.09988931297709924,-0.21037022900763358,0
20303,-10.7847392578125,-2.0138046874999995,-4.559564331054688,0.08568702290076335,0.10752290076335891,-0.23327099236641236,0
20328,-10.782345056152344,-2.0042278808593745,-4.62181357421875,-0.04408396946564885,0.22966030534351156,-0.06533206106870237,0
20353,-10.763191442871094,-1.9778916625976561,-4.66012080078125,-0.028816793893129744,0.1762251908396948,-0.16456870229007647,0
20378,-10.758403039550782,-2.006622082519531,-4.578717944335938,0.047519083969465636,0.16095801526717568,-0.19510305343511447,0
20403,-10.839805895996093,-1.9587380493164062,-4.609842565917969,-0.0364503816793893,0.42813358778625965,-0.050064885496183265,0
20428,-10.736855224609375,-2.0114104858398436,-4.66012080078125,-0.14332061068702295,0.13042366412213746,-0.2561717557251909,0
20453,-10.763191442871094,-1.9922568725585938,-4.6194193725585935,-0.17385496183206106,0.2678282442748092,-0.10350000000000004,0
20478,-10.75361463623047,-2.0425351074218745,-4.676880212402343,-0.12041984732824429,0.405232824427481,-0.20273664122137414,0
20503,-10.825440686035154,-1.9850742675781248,-4.6792744140625,-0.01354961832061069,0.09988931297709924,-0.27143893129771,0
20528,-10.770374047851561,-1.9731032592773439,-4.688851220703125,0.07041984732824424,0.04645419847328247,-0.14930152671755736,0
20553,-10.799104467773436,-1.9970452758789061,-4.6409671875,-0.028816793893129744,0.237293893129771,-0.11876717557251915,0
20578,-10.763191442871094,-2.016198889160156,-4.741523657226563,-0.06698473282442752,0.07698854961832069,-0.29433969465648857,0
20603,-10.777556652832033,-1.9276134277343748,-4.645755590820312,-0.01354961832061069,0.09988931297709924,-0.07296564885496182,0
20628,-10.758403039550782,-1.9731032592773439,-4.605054162597656,-0.05171755725190841,-0.06804961832061052,-0.10350000000000004,0
20653,-10.806287072753907,-2.035352502441406,-4.569141137695312,-0.12041984732824429,0.3059961832061069,-0.10350000000000004,0
20678,-10.758403039550782,-2.0090162841796873,-4.684062817382812,-0.05171755725190841,0.24492748091603067,-0.07296564885496182,0
20704,-10.789527661132812,-2.0305640991210936,-4.552381726074219,0.07041984732824424,0.2220267175572519,-0.2561717557251909,0
20729,-10.811075476074219,-1.9802858642578125,-4.6194193725585935,-0.11278625954198473,0.489202290076336,-0.19510305343511447,0
20754,-10.700942199707033,-2.056900317382812,-4.617025170898438,-0.11278625954198473,0.13042366412213746,-0.011896946564885491,0
20779,-10.806287072753907,-1.9946510742187498,-4.667303405761719,0.0780534351145038,0.2754618320610689,-0.19510305343511447,0
20804,-10.808681274414063,-1.9922568725585938,-4.657726599121093,-0.17385496183206106,0.29836259541984744,-0.27143893129771,0
20829,-10.75361463623047,-2.035352502441406,-4.597871557617188,-0.021183206106870245,0.10752290076335891,-0.17983587786259536,0
20854,-10.811075476074219,-1.9850742675781248,-4.552381726074219,-0.021183206106870245,0.3059961832061069,-0.23327099236641236,0
20879,-10.779950854492188,-1.9731032592773439,-4.6409671875,0.016984732824427473,0.023553435114503918,-0.10350000000000004,0
20904,-10.79671026611328,-2.0401409057617186,-4.662515002441406,0.07041984732824424,0.42813358778625965,-0.17983587786259536,0
20929,-10.73924942626953,-1.9946510742187498,-4.650543994140625,-0.17385496183206106,0.1762251908396948,-0.30197328244274824,0
20954,-10.741643627929687,-2.0138046874999995,-4.6026599609375,0.03225190839694653,0.10752290076335891,-0.07296564885496182,0
20979,-10.75361463623047,-2.0114104858398436,-4.6385729858398435,0.0017175572519083637,0.3365305343511451,-0.20273664122137414,0
21004,-10.782345056152344,-1.9419786376953125,-4.672091809082032,-0.10515267175572518,0.24492748091603067,-0.08823282442748093,0
21029,-10.763191442871094,-2.016198889160156,-4.6936396240234375,-0.14332061068702295,0.2525610687022901,-0.18746946564885503,0
21054,-10.823046484374998,-2.054506115722656,-4.554775927734375,0.009351145038167918,0.321263358778626,-0.21037022900763358,0
21079,-10.84220009765625,-2.0688713256835936,-4.676880212402343,-0.09751908396946563,0.2907290076335878,-0.17220229007633592,0
21104,-10.782345056152344,-2.0281698974609372,-4.7127932373046875,-0.028816793893129744,-0.014614503816793745,-0.14930152671755736,0
21130,-10.827834887695314,-1.9826800659179689,-4.617025170898438,-0.06698473282442752,0.13805725190839713,-0.07296564885496182,0
21155,-10.734461022949219,-2.080842333984375,-4.590688952636719,-0.12805343511450384,0.28309541984732833,-0.08823282442748093,0
21180,-10.839805895996093,-1.9778916625976561,-4.626601977539062,-0.01354961832061069,0.2601946564885498,-0.16456870229007647,0
21205,-10.808681274414063,-1.9539496459960939,-4.612236767578125,0.06278625954198469,0.2678282442748092,-0.23327099236641236,0
21230,-10.760797241210938,-1.9683148559570312,-4.617025170898438,0.047519083969465636,0.08462213740458036,-0.17983587786259536,0
21255,-10.756008837890626,-1.9802858642578125,-4.633784582519532,-0.021183206106870245,0.13805725190839713,-0.1569351145038168,0
21280,-10.794316064453124,-2.0018336791992186,-4.6553323974609375,0.03988549618320608,0.32889694656488566,-0.11876717557251915,0
21305,-10.73924942626953,-2.0425351074218745,-4.538016516113281,0.016984732824427473,0.3365305343511451,-0.11113358778625948,0
21330,-10.787133459472656,-2.0233814941406245,-4.597871557617188,-0.28835877862595427,0.22966030534351156,-0.18746946564885503,0
21355,-10.813469677734375,-1.9731032592773439,-4.717581640625,-0.028816793893129744,0.2220267175572519,-0.27907251908396946,0
21380,-10.777556652832033,-2.0497177124023436,-4.609842565917969,-0.01354961832061069,0.4205000000000001,-0.10350000000000004,0
21405,-10.779950854492188,-2.006622082519531,-4.664909204101562,-0.01354961832061069,0.16859160305343512,-0.17220229007633592,0
21430,-10.758403039550782,-2.0114104858398436,-4.585900549316406,0.11622137404580152,0.05408778625954214,-0.17983587786259536,0
21455,-10.746432031249999,-1.9731032592773439,-4.6385729858398435,0.08568702290076335,0.0006526717557253647,-0.1264007633587786,0
21480,-10.775162451171873,-2.054506115722656,-4.62181357421875,-0.06698473282442752,0.10752290076335891,0.11024045801526716,0
21506,-10.772768249511717,-1.9707090576171875,-4.617025170898438,0.10095419847328241,0.14569083969465657,-0.05769847328244282,0
21531,-10.751220434570314,-2.0018336791992186,-4.652938195800782,-0.021183206106870245,0.14569083969465657,-0.08059923664122137,0
21556,-10.729672619628907,-2.0688713256835936,-4.669697607421875,-0.1356870229007634,0.39759923664122154,-0.21037022900763358,0
21581,-10.851776904296873,-1.9946510742187498,-4.6026599609375,-0.08988549618320618,0.28309541984732833,-0.08823282442748093,0
21606,-10.73924942626953,-1.9252192260742185,-4.6194193725585935,-0.08225190839694663,0.3899656488549619,-0.27907251908396946,0
21631,-10.712913208007812,-2.0521119140624995,-4.617025170898438,-0.08225190839694663,0.24492748091603067,-0.07296564885496182,0
21656,-10.794316064453124,-1.9515554443359375,-4.573929541015625,-0.08988549618320618,0.07698854961832069,-0.0271641221374046,0
21681,-10.799104467773436,-2.0377467041015622,-4.664909204101562,0.05515267175572519,0.2907290076335878,-0.2256374045801527,0
21706,-10.75361463623047,-1.9826800659179689,-4.609842565917969,0.0017175572519083637,0.12279007633587802,-0.09586641221374048,0
21731,-10.794316064453124,-2.0090162841796873,-4.609842565917969,-0.04408396946564885,0.1762251908396948,-0.08823282442748093,0
21756,-10.76558564453125,-2.0592945190429686,-4.676880212402343,0.047519083969465636,0.11515648854961835,-0.17220229007633592,0
21781,-10.73924942626953,-2.0329583007812495,-4.66012080078125,-0.05171755725190841,0.34416412213740477,-0.07296564885496182,0
21806,-10.736855224609375,-2.0138046874999995,-4.676880212402343,0.11622137404580152,0.39759923664122154,-0.21037022900763358,0
21831,-10.7081248046875,-1.9707090576171875,-4.6792744140625,-0.021183206106870245,0.03118702290076336,-0.05769847328244282,0
21856,-10.746432031249999,-1.9778916625976561,-4.753494665527343,-0.18912213740458017,0.3899656488549619,-0.17983587786259536,0
21881,-10.856565307617188,-2.0377467041015622,-4.605054162597656,-0.12805343511450384,0.2525610687022901,-0.10350000000000004,0
21906,-10.813469677734375,-1.9707090576171875,-4.5619585327148435,0.10095419847328241,0.2601946564885498,-0.06533206106870237,0
21932,-10.760797241210938,-1.9802858642578125,-4.564352734375,-0.15858778625954195,0.28309541984732833,-0.019530534351145046,0
21957,-10.775162451171873,-1.9970452758789061,-4.564352734375,-0.09751908396946563,0.29836259541984744,-0.2867061068702291,0
21982,-10.811075476074219,-2.0114104858398436,-4.540410717773438,0.09332061068702285,0.13805725190839713,-0.06533206106870237,0
22007,-10.700942199707033,-2.092813342285156,-4.672091809082032,-0.0364503816793893,0.06935496183206125,-0.23327099236641236,0
22032,-10.803892871093751,-1.9802858642578125,-4.609842565917969,-0.05935114503816796,0.1762251908396948,-0.11113358778625948,0
22057,-10.741643627929687,-1.9994394775390625,-4.6194193725585935,0.03225190839694653,0.10752290076335891,-0.05769847328244282,0
22082,-10.777556652832033,-1.9994394775390625,-4.605054162597656,0.09332061068702285,0.2601946564885498,-0.11876717557251915,0
22107,-10.751220434570314,-1.9922568725585938,-4.552381726074219,-0.021183206106870245,0.3365305343511451,-0.08823282442748093,0
22132,-10.763191442871094,-2.044929309082031,-4.5428049194335935,-0.1509541984732825,0.2220267175572519,-0.23327099236641236,0
22157,-10.811075476074219,-1.9802858642578125,-4.686457019042969,0.0780534351145038,0.21439312977099245,-0.18746946564885503,0
22182,-10.825440686035154,-2.0329583007812495,-4.585900549316406,0.12385496183206107,0.24492748091603067,-0.18746946564885503,0
22207,-10.741643627929687,-2.0281698974609372,-4.633784582519532,0.09332061068702285,0.206759541984733,-0.18746946564885503,0
22232,-10.7847392578125,-1.9539496459960939,-4.5811121459960935,-0.04408396946564885,0.31362977099236655,-0.14930152671755736,0
22257,-10.756008837890626,-1.9707090576171875,-4.5811121459960935,-0.09751908396946563,0.0922557251908398,-0.20273664122137414,0
22282,-10.808681274414063,-2.0616887207031245,-4.684062817382812,-0.15858778625954195,0.1762251908396948,-0.1569351145038168,0
22307,-10.801498669433592,-2.044929309082031,-4.573929541015625,-0.021183206106870245,0.3899656488549619,-0.0271641221374046,0
22332,-10.79671026611328,-2.056900317382812,-4.664909204101562,0.05515267175572519,0.16095801526717568,-0.07296564885496182,0
22358,-10.767979846191405,-2.0497177124023436,-4.552381726074219,-0.2349236641221374,0.18385877862595423,-0.04243129770992371,0
22383,-10.818258081054687,-1.9371902343749998,-4.676880212402343,0.15438931297709924,0.15332442748091624,-0.05769847328244282,0
22408,-10.779950854492188,-1.9611322509765625,-4.585900549316406,0.047519083969465636,0.32889694656488566,-0.21037022900763358,0
22433,-10.715307409667968,-2.0377467041015622,-4.585900549316406,-0.12041984732824429,0.3670648854961833,-0.17983587786259536,0
22458,-10.808681274414063,-1.9826800659179689,-4.631390380859375,-0.15858778625954195,0.31362977099236655,-0.08059923664122137,0
22483,-10.724884216308592,-1.9850742675781248,-4.595477355957032,0.10858778625954196,0.489202290076336,-0.19510305343511447,0
22508,-10.760797241210938,-1.9994394775390625,-4.715187438964843,0.0017175572519083637,0.13042366412213746,-0.23327099236641236,0
22533,-10.825440686035154,-2.025775695800781,-4.612236767578125,0.07041984732824424,0.237293893129771,-0.11113358778625948,0
22558,-10.782345056152344,-2.0042278808593745,-4.691245422363282,-0.028816793893129744,0.06172137404580158,-0.11113358778625948,0
22583,-10.813469677734375,-2.0305640991210936,-4.715187438964843,0.10095419847328241,-0.04514885496183196,-0.17220229007633592,0
22608,-10.779950854492188,-2.0688713256835936,-4.509286096191406,0.05515267175572519,0.22966030534351156,-0.06533206106870237,0
22633,-10.7847392578125,-1.9970452758789061,-4.609842565917969,0.03225190839694653,0.2678282442748092,-0.10350000000000004,0
22658,-10.779950854492188,-1.9731032592773439,-4.652938195800782,-0.021183206106870245,0.023553435114503918,-0.18746946564885503,0
22683,-10.801498669433592,-2.0018336791992186,-4.617025170898438,0.09332061068702285,0.19912595419847334,-0.20273664122137414,0
22708,-10.789527661132812,-2.0018336791992186,-4.547593322753906,-0.0364503816793893,0.3517977099236642,-0.09586641221374048,0
22733,-10.724884216308592,-2.0305640991210936,-4.605054162597656,-0.0364503816793893,0.14569083969465657,-0.17220229007633592,0
22758,-10.7847392578125,-2.0018336791992186,-4.530833911132812,-0.01354961832061069,0.09988931297709924,-0.17220229007633592,0
22784,-10.777556652832033,-2.0209872924804686,-4.62181357421875,0.024618320610687028,0.2678282442748092,-0.21037022900763358,0
22809,-10.717701611328124,-2.0185930908203122,-4.6385729858398435,0.0780534351145038,0.22966030534351156,-0.21800381679389325,0
22834,-10.799104467773436,-2.0209872924804686,-4.652938195800782,-0.06698473282442752,0.21439312977099245,-0.34777480916030534,0
22859,-10.770374047851561,-2.073659729003906,-4.590688952636719,0.0017175572519083637,0.29836259541984744,-0.1569351145038168,0
22884,-10.75361463623047,-2.0090162841796873,-4.5811121459960935,-0.05171755725190841,0.3059961832061069,-0.18746946564885503,0
22909,-10.820652282714843,-1.9946510742187498,-4.6385729858398435,-0.04408396946564885,0.24492748091603067,-0.004263358778625936,0
22934,-10.75361463623047,-2.0377467041015622,-4.6385729858398435,0.009351145038167918,0.08462213740458036,-0.034797709923664155,0
22959,-10.81586387939453,-1.9826800659179689,-4.624207775878906,-0.021183206106870245,0.2678282442748092,-0.2867061068702291,0
22984,-10.75361463623047,-2.0329583007812495,-4.645755590820312,-0.11278625954198473,0.3899656488549619,-0.13403435114503826,0
23009,-10.823046484374998,-2.0042278808593745,-4.657726599121093,0.10858778625954196,0.24492748091603067,-0.050064885496183265,0
23034,-10.76558564453125,-2.025775695800781,-4.5619585327148435,-0.09751908396946563,0.2601946564885498,-0.10350000000000004,0
23059,-10.79671026611328,-1.9826800659179689,-4.6792744140625,0.009351145038167918,0.2220267175572519,-0.05769847328244282,0
23084,-10.741643627929687,-2.0329583007812495,-4.6194193725585935,-0.10515267175572518,0.0922557251908398,-0.09586641221374048,0
23109,-10.787133459472656,-1.9084598144531248,-4.607448364257812,-0.12041984732824429,0.13805725190839713,-0.27907251908396946,0
23134,-10.789527661132812,-1.9994394775390625,-4.557170129394531,-0.005916030534351191,0.13805725190839713,-0.11113358778625948,0
23159,-10.803892871093751,-2.025775695800781,-4.6194193725585935,0.009351145038167918,0.2601946564885498,-0.21037022900763358,0
23184,-10.794316064453124,-2.0592945190429686,-4.6002657592773435,-0.04408396946564885,0.19912595419847334,-0.04243129770992371,0
23210,-10.827834887695314,-1.9611322509765625,-4.566746936035156,0.03225190839694653,0.4510343511450383,-0.18746946564885503,0
23235,-10.839805895996093,-1.9731032592773439,-4.6385729858398435,-0.021183206106870245,0.37469847328244277,-0.1264007633587786,0
23260,-10.799104467773436,-2.0114104858398436,-4.571535339355469,-0.08225190839694663,0.11515648854961835,-0.19510305343511447,0
23285,-10.789527661132812,-1.9850742675781248,-4.609842565917969,0.03988549618320608,0.21439312977099245,-0.19510305343511447,0
23310,-10.782345056152344,-2.016198889160156,-4.705610632324219,0.016984732824427473,0.15332442748091624,-0.06533206106870237,0
23335,-10.81586387939453,-2.006622082519531,-4.585900549316406,-0.0364503816793893,0.206759541984733,-0.21800381679389325,0
23360,-10.803892871093751,-1.9994394775390625,-4.650543994140625,0.047519083969465636,0.18385877862595423,-0.21037022900763358,0
23385,-10.767979846191405,-1.9731032592773439,-4.648149792480469,-0.06698473282442752,0.15332442748091624,-0.09586641221374048,0
23410,-10.791921862792968,-2.025775695800781,-4.684062817382812,0.09332061068702285,0.06172137404580158,0.033904580152671726,0
23435,-10.799104467773436,-1.9419786376953125,-4.6936396240234375,0.03225190839694653,0.16095801526717568,-0.3096068702290077,0
