t_ms,ax,ay,az,gx,gy,gz,label
0,7.104735546874999,-1.805509143066406,1.9071743530273435,-2.7998091603053434,-4.381026717557251,0.4766526717557252,0
25,7.162196386718748,-1.8533931762695313,1.9071743530273435,-3.18912213740458,-1.3657595419847328,0.6216908396946564,0
50,7.46147159423828,-1.8486047729492188,1.8377425048828124,-2.4639312977099235,3.1456908396946566,-2.0271641221374046,0
75,7.770323608398436,-1.6498860351562499,1.880838134765625,-0.8761450381679389,4.985385496183206,-5.584416030534351,0
100,7.748775793457031,-1.5972135986328124,1.9718177978515625,0.11622137404580152,0.5044694656488551,-7.225637404580153,0
125,7.5141440307617176,-1.5948193969726563,2.0747684692382813,-0.7692748091603053,0.14569083969465657,-4.851591603053436,0
150,7.336973107910155,-1.6259440185546874,2.04364384765625,-1.1204198473282445,1.58843893129771,-0.5691488549618321,0
175,7.219657226562499,-1.7217120849609375,1.9646351928710934,-0.24255725190839694,2.367064885496183,2.2323778625954196,0
200,7.111918151855469,-1.824662756347656,1.9382989746093748,1.4520992366412213,1.1304236641221375,2.8735992366412213,0
225,7.087976135253906,-1.8366337646484374,1.9502699829101562,2.6963740458015266,3.0693549618320612,2.0262709923664124,0
250,7.0472747070312485,-1.8462105712890624,1.8880207397460935,3.879580152671756,3.542637404580153,0.5148206106870228,0
275,7.145436975097655,-1.9419786376953125,2.014913427734375,3.925381679389313,3.1914923664122137,-0.355408396946565,0
300,7.365703527832031,-1.9324018310546875,2.053220654296875,5.0551526717557245,-0.5565992366412214,-1.4088435114503817,0
325,7.296271679687499,-1.8007207397460936,2.072374267578125,5.742175572519083,-3.006980916030534,-1.5920496183206105,0
350,7.291483276367187,-1.8222685546875,2.0963162841796876,5.001717557251908,-0.8772099236641222,-0.1416679389312977,0
375,7.183744201660155,-1.7480483032226561,2.108287292480469,4.688740458015267,1.107522900763359,1.911767175572519,0
401,7.116706555175781,-1.8749409912109376,2.0364612426757813,4.413931297709923,2.275461832061069,3.2934465648854965,0
426,7.3824629394531245,-1.8342395629882813,2.098710485839844,3.879580152671756,4.054087786259542,2.8812328244274807,0
451,7.475836804199218,-1.6642512451171874,2.2016611572265625,3.360496183206107,1.4586679389312978,1.6140572519083969,0
476,7.504567224121092,-1.6905874633789062,2.218420568847656,1.6276717557251907,-0.6863702290076334,0.9728358778625954,0
501,7.4207701660156244,-1.6355208251953124,2.271093005371094,1.6353053435114502,-4.503164122137404,1.1026068702290077,0
526,7.2316282348632805,-1.6403092285156249,2.223208972167969,1.1772900763358778,-3.4344618320610683,2.751461832061069,0
551,7.178955798339843,-1.6331266235351563,2.2208147705078125,0.03225190839694653,-0.20545419847328228,5.262912213740457,0
576,7.152619580078125,-1.621155615234375,2.208843762207031,-0.9066793893129771,1.3288969465648857,6.446118320610687,0
601,7.044880505371093,-1.6618570434570312,2.2064495605468752,-1.4410305343511451,-0.6863702290076334,5.545354961832061,0
626,6.977842858886718,-1.7241062866210937,2.1226525024414062,-2.120419847328244,-2.129118320610687,3.8048969465648854,0
651,7.0233326904296876,-1.7336830932617187,2.1058930908203126,-3.4333969465648853,-4.289423664122138,2.1560419847328243,0
676,6.925170422363281,-1.8007207397460936,2.0675858642578127,-4.85324427480916,-6.923011450381679,0.5835229007633587,0
701,6.82940235595703,-1.8845177978515626,1.8975975463867185,-5.5173664122137405,-6.686370229007633,-0.6607519083969465,0
726,6.827008154296874,-1.8557873779296874,1.7970410766601561,-5.234923664122138,-5.968812977099237,-1.7828893129770993,0
751,6.994602270507811,-1.86057578125,1.9359047729492187,-3.6853053435114504,-4.40392748091603,-2.8973931297709923,0
776,7.109523950195311,-1.8581815795898438,1.8975975463867185,-2.311259541984733,-2.274156488549618,-3.5080801526717553,0
802,7.229234033203125,-1.86057578125,1.8664729248046874,-1.0975190839694657,0.8861488549618322,-4.118767175572519,0
827,7.377674536132811,-1.7911439331054686,1.9526641845703123,0.475,4.0998893129770995,-4.027164122137405,0
852,7.471048400878906,-1.7911439331054686,1.871261328125,2.1696564885496183,4.542637404580153,-2.8134236641221375,0
877,7.550057055664062,-1.84142216796875,1.9670293945312498,3.1696564885496183,5.222026717557252,-1.538614503816794,0
902,7.365703527832031,-1.8462105712890624,1.9766062011718748,2.879580152671756,5.244927480916031,0.5377213740458016,0
927,7.480625207519531,-1.8198743530273436,2.0364612426757813,1.7345419847328243,3.58843893129771,2.3087137404580154,0
952,7.413587561035155,-1.8342395629882813,2.024490234375,1.039885496183206,1.3746984732824428,1.9041335877862595,0
977,7.267541259765625,-1.8222685546875,2.069980065917969,-0.5479007633587786,0.09988931297709924,1.2018435114503816,0
1002,7.202897814941406,-1.7504425048828125,2.053220654296875,-2.02881679389313,-0.9535458015267175,1.3010801526717557,0
1027,7.178955798339843,-1.7312888916015625,2.0005482177734377,-1.891412213740458,-4.777973282442748,0.812530534351145,0
1052,6.994602270507811,-1.786355529785156,2.0125192260742186,-1.6318702290076335,-3.9764465648854963,0.713293893129771,0
1078,7.078399328613281,-1.7121352783203125,1.9885772094726561,-1.837977099236641,-0.510797709923664,0.5835229007633587,0
1103,7.155013781738281,-1.7408656982421875,1.880838134765625,-0.7158396946564886,-1.8695763358778623,-0.36304198473282445,0
1128,7.119100756835937,-1.7791729248046875,1.8401367065429686,0.5131679389312976,-3.0604160305343506,-1.034797709923664,0
1153,7.111918151855469,-1.8749409912109376,2.0005482177734377,1.1849236641221372,-1.4344618320610687,-1.3248740458015265,0
1178,7.193321008300781,-1.8749409912109376,1.8784439331054685,1.8795801526717555,0.2601946564885498,-1.485179389312977,0
1203,7.274723864746092,-1.8749409912109376,1.9359047729492187,2.108587786259542,0.15332442748091624,-1.4546450381679388,0
1229,7.28908907470703,-1.9611322509765625,1.9813946044921875,1.0169847328244275,1.6037061068702292,-0.47754580152671766,0
1254,7.281906469726562,-1.9347960327148435,1.9454815795898437,1.0551526717557251,-1.1672862595419846,0.8201641221374045,0
1279,7.305848486328125,-2.0042278808593745,1.9550583862304687,0.574236641221374,-0.32759160305343493,2.2171106870229007,0
1304,7.243599243164062,-1.9419786376953125,1.854501916503906,0.841412213740458,1.702942748091603,2.606423664122137,0
1329,7.31542529296875,-1.9802858642578125,1.911962756347656,0.7192748091603053,3.557904580152672,2.8506984732824425,0
1354,7.253176049804687,-1.9395844360351562,2.0268844360351563,0.4062977099236641,3.939583969465649,2.3087137404580154,0
1379,7.296271679687499,-1.8294511596679686,2.050826452636719,0.7879770992366413,3.519736641221374,1.8965,0
1404,7.255570251464843,-1.8438163696289063,2.1058930908203126,1.3375954198473283,3.321263358778626,0.797263358778626,0
1429,7.236416638183592,-1.8869119995117185,2.129835107421875,2.154389312977099,1.8632480916030536,0.3850496183206107,0
1454,7.17416739501953,-1.8533931762695313,2.1777191406250003,1.6963740458015266,4.473935114503817,-0.3096068702290077,0
1479,7.336973107910155,-1.84142216796875,2.15856552734375,1.8643129770992366,4.069354961832062,-1.149301526717557,0
1504,7.313031091308592,-1.786355529785156,2.27348720703125,2.6963740458015266,1.0540877862595421,-1.3477748091603052,0
1529,7.066428320312499,-1.824662756347656,2.2878524169921874,2.4520992366412213,0.4510343511450383,0.8430648854961832,0
1554,6.996996472167967,-1.831845361328125,2.2854582153320315,0.03225190839694653,5.405232824427481,3.484286259541985,0
1580,6.9706602539062485,-1.8869119995117185,2.1394119140625,-2.02881679389313,5.145690839694657,4.2400114503816795,0
1605,6.985025463867188,-1.9419786376953125,2.0556148559570313,-2.9677480916030534,1.75637786259542,2.4079503816793895,0
1630,6.757576306152344,-2.0521119140624995,1.9933656127929684,-3.173854961832061,-1.7398053435114504,-0.2256374045801527,0
1655,6.862921179199218,-2.1790046020507807,1.825771496582031,-3.7082061068702292,0.5579045801526719,-2.8592251908396946,0
1680,7.0831877319335925,-2.076053930664062,1.7635222534179686,-3.2349236641221375,0.2220267175572519,-5.301973282442749,0
1705,7.169378991699218,-1.9539496459960939,1.7659164550781248,-2.334160305343511,1.855614503816794,-6.882125954198473,0
1730,7.356126721191406,-1.8677583862304687,1.854501916503906,-0.7311068702290077,3.702942748091603,-6.828690839694657,0
1755,7.4925962158203125,-1.824662756347656,1.9933656127929684,1.711641221374046,3.8479809160305343,-5.385942748091604,0
1780,7.451894787597655,-1.7025584716796873,2.04364384765625,3.8490458015267177,5.176225190839695,-2.8286908396946564,0
1805,7.427952770996092,-1.7193178833007812,2.170536535644531,5.7116412213740455,5.565538167938932,-0.7447213740458015,0
1830,7.3824629394531245,-1.5948193969726563,2.2878524169921874,6.833778625954198,3.3594312977099237,0.8735992366412213,0
1855,7.23881083984375,-1.5780599853515624,2.3668610717773437,6.29179389312977,3.473935114503817,2.4690190839694655,0
1880,7.0999471435546875,-1.716923681640625,2.4195335083007814,4.80324427480916,2.7334770992366413,3.316347328244275,0
1905,7.040092102050781,-1.7432598999023436,2.474600146484375,2.994083969465649,3.367064885496183,2.7132938931297708,0
1930,6.932353027343749,-1.7480483032226561,2.3333422485351565,1.658206106870229,1.0922557251908398,1.5835229007633589,0
1956,6.879680590820311,-1.9108540161132812,2.2782756103515625,-0.8761450381679389,-2.457362595419847,0.05680534351145039,0
1981,6.884468994140625,-1.9539496459960939,2.1442003173828126,-3.0440839694656487,-2.5795,-2.5920496183206105,0
2006,7.133465966796874,-1.824662756347656,2.0771626708984376,-2.7616412213740458,-4.197820610687023,-5.935561068702291,0
2031,7.303454284667969,-1.805509143066406,2.127440905761719,-1.074618320610687,-6.457362595419847,-7.943194656488551,0
2056,7.229234033203125,-1.76480771484375,2.2064495605468752,0.4062977099236641,-4.861942748091604,-6.515713740458016,0
2081,7.272329663085936,-1.6546744384765624,2.2112379638671875,1.2307251908396948,0.13042366412213746,-3.1264007633587787,0
2106,7.38485714111328,-1.6043962036132813,2.1729307373046876,1.0322519083969466,4.4357671755725185,0.11024045801526716,0
2131,7.554845458984373,-1.6474918334960937,2.199266955566406,1.4520992366412213,2.9319503816793895,1.4384847328244275,0
2156,7.43034697265625,-1.6810106567382812,2.1872959472656253,2.406297709923664,0.5350038167938932,1.331614503816794,0
2181,7.3441557128906245,-1.7288946899414062,2.3070060302734374,2.497900763358779,2.023553435114504,0.8277977099236641,0
2206,7.28908907470703,-1.7288946899414062,2.3524958618164065,2.3681297709923665,1.5808053435114504,1.4919198473282442,0
2231,7.272329663085936,-1.7121352783203125,2.3716494750976564,1.4139312977099237,0.4510343511450383,2.4003167938931296,0
2256,7.1957152099609365,-1.6929816650390623,2.359678466796875,-0.0364503816793893,-0.18255343511450373,2.7361946564885495,0
2281,7.1214949584960925,-1.7480483032226561,2.4003798950195314,-1.2196564885496182,-0.4497290076335876,2.3239809160305342,0
2307,7.0831877319335925,-1.6379150268554687,2.4578407348632814,-2.6853053435114504,-1.0680496183206105,1.629324427480916,0
2332,7.133465966796874,-1.544541162109375,2.232785778808594,-3.3799618320610687,-2.41156106870229,0.26291221374045803,0
2357,7.13586016845703,-1.5134165405273436,2.4243219116210937,-4.807442748091604,1.3059961832061069,-1.1264007633587787,0
2382,6.927564624023437,-1.6905874633789062,2.3381306518554688,-3.3799618320610687,-2.060416030534351,-2.248538167938931,0
2407,6.860526977539062,-1.8270569580078124,2.175324938964844,-4.776908396946565,1.8861488549618322,-2.981362595419847,0
2432,7.054457312011718,-1.4942629272460937,2.165748132324219,-3.0593511450381676,-1.8161412213740458,-4.0882328244274815,0
2457,6.922776220703125,-1.9132482177734376,2.0843452758789063,-3.341793893129771,2.4281335877862595,-4.492812977099237,0
2482,6.953900842285155,-1.8629699829101563,2.1968727539062503,-2.173854961832061,4.901416030534351,-4.927927480916031,0
2507,7.133465966796874,-1.6139730102539063,2.3046118286132815,-0.5326335877862595,3.3365305343511453,-5.95082824427481,0
2532,7.262752856445311,-1.86057578125,2.275881408691406,-1.8685114503816793,9.283095419847328,-6.324874045801527,0
2557,7.279512268066406,-1.8893062011718749,2.2064495605468752,-1.1127862595419846,6.901416030534351,-6.294339694656489,0
2582,7.202897814941406,-1.7719903198242186,2.340524853515625,-0.9601145038167939,4.389965648854962,-5.187469465648856,0
2607,7.387251342773436,-1.7408656982421875,2.4027740966796873,-2.6776717557251906,7.405232824427481,-4.172202290076336,0
2635,7.432741174316406,-1.6163672119140624,2.3046118286132815,-2.8761450381679388,5.832713740458015,-3.43937786259542,0
2660,7.600335290527343,-1.5517237670898436,2.4578407348632814,-2.6166030534351146,1.6266068702290077,-3.202736641221374,0
2685,7.629065710449217,-1.3601876342773438,2.436292919921875,-3.2120229007633587,2.389965648854962,-4.080599236641222,0
2710,7.459077392578124,-1.4703209106445312,2.4147451049804687,-2.7616412213740458,-0.625301526717557,-4.485179389312978,0
2735,7.037697900390625,-1.2524485595703125,2.46502333984375,-6.03645038167939,7.359431297709923,-4.508080152671756,0
2761,7.037697900390625,-1.3553992309570313,2.3668610717773437,-4.494465648854963,4.4357671755725185,-3.202736641221374,0
2786,6.8365849609375,-1.3793412475585938,2.4865711547851563,-4.441030534351145,6.405232824427481,-2.416477099236641,0
2811,6.886863195800781,-1.4751093139648437,2.3429190551757815,-4.326526717557252,7.481568702290076,-2.172202290076336,0
2836,7.049668908691406,-1.4463788940429687,2.596704431152344,-3.6700381679389316,4.405232824427481,-1.4775458015267176,0
2861,7.166984790039062,-1.4176484741210937,2.4482639282226564,-2.4486641221374046,-0.48789694656488547,-0.9279274809160306,0
2886,7.152619580078125,-1.5804541870117186,2.3165828369140624,-1.837977099236641,-1.7092709923664122,-1.385942748091603,0
2911,7.260358654785155,-1.5852425903320313,2.3836204833984374,-0.8608778625954198,-2.5489656488549617,-2.3096068702290076,0
2936,7.253176049804687,-1.5182049438476561,2.3070060302734374,0.5666030534351145,-6.861942748091602,-2.6760190839694658,0
2961,7.016150085449218,-1.6187614135742188,2.2399683837890625,0.6811068702290076,-5.76270610687023,-1.7141870229007634,0
2986,7.068822521972655,-1.6187614135742188,2.321371240234375,1.1467557251908396,-4.312324427480917,-0.8439580152671756,0
3011,7.25078184814453,-1.5852425903320313,2.283064013671875,2.2001908396946566,-2.4497290076335876,0.1713091603053435,0
3036,7.279512268066406,-1.4368020874023437,2.3908030883789064,1.5666030534351143,3.5960725190839695,2.0720725190839695,0
3061,7.612306298828124,-1.2907557861328125,2.218420568847656,6.917748091603053,-15.373393129770992,3.8888664122137406,0
3086,8.328172595214841,-0.835857470703125,1.85210771484375,13.268893129770992,-42.999347328244276,4.820164122137404,0
3111,7.109523950195311,-2.138303173828125,2.2256031738281252,10.528435114503816,-38.41156106870229,5.690393129770992,0
3136,6.704903869628905,-1.6259440185546874,2.2399683837890625,4.062786259541984,-8.88484351145038,7.415583969465649,0
3162,7.226839831542969,-1.8366337646484374,1.8688671264648435,3.261259541984733,-1.1672862595419846,8.301080152671755,0
3187,7.229234033203125,-1.621155615234375,2.034067041015625,0.4062977099236641,8.160958015267175,7.843064885496183,0
3212,7.358520922851562,-1.2332949462890626,1.9694235961914062,3.7192748091603054,-2.1825534351145035,7.102606870229007,0
3237,7.897216296386717,-1.1638630981445313,1.337354357910156,18.055152671755728,-48.6558358778626,10.40031679389313,0
3262,6.965871850585937,-1.6834048583984373,1.7874642700195311,21.192557251908397,-56.14438549618321,13.453751908396946,0
3287,7.214868823242187,0.6533359619140624,0.28869403076171873,-0.2501908396946565,25.61897328244275,12.827797709923663,0
3312,6.915593615722655,-0.5222170532226562,0.5352968017578125,-8.822709923664123,41.03118702290076,8.698026717557251,0
3337,6.831796557617186,-2.219706030273437,1.6486005737304685,-11.738740458015268,58.939583969465644,3.247645038167939,0
3362,7.226839831542969,-1.8653641845703124,2.0125192260742186,-11.54790076335878,68.48920229007634,-2.889759541984733,0
3390,7.3824629394531245,-2.428001574707031,2.3812262817382814,23.734541984732825,-15.121484732824428,-6.393576335877863,0
3415,6.934747229003906,-1.7432598999023436,1.9502699829101562,24.50553435114504,-15.289423664122136,-4.5233473282442755,0
3440,6.6067416015625,-1.1207674682617188,1.2894703247070312,29.223091603053437,-43.243622137404586,-1.149301526717557,0
3465,6.934747229003906,-2.4734914062499995,2.1681423339843753,35.69637404580153,-66.72453816793893,-8.072965648854963,0
3490,6.8772863891601554,-2.090419140625,1.8329541015625,14.177290076335877,4.725843511450382,-11.676019083969466,0
3515,6.989813867187499,-1.6043962036132813,1.9790004028320312,13.45973282442748,-10.526064885496183,-13.042431297709925,0
3540,7.638642517089843,-1.8174801513671874,2.0843452758789063,-3.4333969465648853,15.138057251908398,-14.256171755725191,0
3566,7.684132348632812,-1.4990513305664062,2.6326174560546876,-10.586068702290076,20.519736641221375,-13.60731679389313,0
3591,7.600335290527343,-1.0417588134765625,1.9550583862304687,-4.86087786259542,-18.709270992366413,-9.233270992366412,0
3616,7.071216723632811,-1.6905874633789062,2.0651916625976563,-14.624236641221374,-18.90774427480916,-5.43937786259542,0
3641,6.925170422363281,-1.238083349609375,2.0460380493164063,-30.608969465648855,20.794545801526716,-3.782889312977099,0
3666,7.255570251464843,-1.1758341064453124,2.271093005371094,-37.75400763358778,33.13805725190839,-2.1874694656488547,0
3691,7.971436547851561,-1.9108540161132812,1.9239337646484374,-32.868511450381675,16.970118320610688,-1.8744923664122135,0
3716,7.380068737792969,-1.104008056640625,2.330948046875,-26.250190839694657,6.901416030534351,6.0186374045801525,0
3741,7.54526865234375,-0.9507791503906249,2.0771626708984376,-23.921946564885495,14.260194656488551,13.499553435114503,0
3766,7.245993444824218,-1.53496435546875,2.060403259277344,-20.616603053435114,15.870881679389313,19.491919847328244,0
3791,6.712086474609374,-1.4248310791015624,1.8281656982421874,-21.066984732824427,45.84034732824427,24.55298854961832,0
3816,8.392816040039062,-1.6450976318359374,1.8568961181640624,-14.265458015267177,45.91668320610687,20.949935114503816,0
3841,8.732792675781248,0.5192606689453124,2.682895690917969,-7.9524809160305345,40.03882061068702,10.797263358778626,0
3866,7.533297644042968,-1.3218804077148436,2.4506581298828127,-0.8303435114503818,32.19149236641221,0.7285610687022901,0
3891,6.805460339355467,-2.1359089721679685,2.551214599609375,7.734541984732824,7.191492366412215,-6.584416030534351,0
3916,6.7599705078125,-1.6403092285156249,2.711626110839844,2.6200381679389313,22.535003816793893,-11.927927480916031,0
3941,8.608294189453122,-1.7121352783203125,4.093080468749999,6.329961832061068,24.4586679389313,-21.95846183206107,0
3966,7.229234033203125,-1.123161669921875,3.200043249511719,16.719274809160307,-33.83140839694657,-25.27907251908397,0
3992,6.831796557617186,-1.0920370483398436,2.915133251953125,20.48263358778626,-61.41919465648855,-24.1035,0
4017,6.472666308593749,-1.5780599853515624,2.54163779296875,13.169656488549618,-55.09095038167939,-18.75998854961832,0
4042,7.966648144531249,-2.2795610717773434,2.644588464355469,6.3757633587786255,-45.13675190839695,-13.385942748091603,0
4067,7.518932434082031,-1.0968254516601563,2.3931972900390623,6.2688931297709924,-44.07568320610687,-8.44701145038168,0
4092,7.669767138671873,-1.3123036010742186,1.9430873779296873,3.0169847328244277,-33.442095419847334,0.011003816793893062,0
4117,7.25078184814453,-1.6594628417968749,1.9454815795898437,0.742175572519084,-14.068049618320611,9.751461832061068,0
4142,7.425558569335936,-1.8557873779296874,1.835348303222656,-3.441030534351145,15.985385496183207,15.117874045801527,0
4167,7.605123693847655,-1.7121352783203125,1.8904149414062499,-2.2959923664122135,24.41286641221374,15.591156488549618,0
4192,7.4782310058593735,-1.61157880859375,1.7994352783203125,2.6734732824427483,13.504469465648855,12.255278625954197,0
4217,7.375280334472655,-1.7001642700195312,1.902385949707031,6.513167938931297,2.519736641221374,7.4766526717557245,0
4242,7.334578906249999,-1.7336830932617187,1.9406931762695312,6.589503816793893,2.1991259541984736,4.171309160305343,0
4267,7.253176049804687,-1.6810106567382812,2.4195335083007814,0.8566793893129772,10.59607251908397,4.369782442748091,0
4292,7.207686218261718,-1.6498860351562499,2.0125192260742186,0.4979007633587786,-1.694003816793893,7.087339694656488,0
4317,7.087976135253906,-1.602002001953125,2.0843452758789063,-2.7616412213740458,-0.5565992366412214,8.316347328244275,0
4342,6.973054455566406,-1.5708773803710936,1.9957598144531248,-4.540267175572519,2.0998893129770995,7.743828244274809,0
4367,6.994602270507811,-1.575665783691406,1.864078723144531,-3.837977099236641,5.153324427480916,6.522454198473282,0
4393,7.011361682128906,-1.5397527587890625,1.842530908203125,-0.34179389312977104,-0.1062175572519084,4.751461832061069,0
4418,7.0089674804687485,-1.6810106567382812,1.9047801513671874,2.726908396946565,-0.20545419847328228,1.2171106870229007,0
4443,7.183744201660155,-1.7600193115234375,1.8975975463867185,6.421564885496183,5.786912213740457,-2.218003816793893,0
4468,7.28908907470703,-1.6905874633789062,1.9909714111328125,11.963549618320611,4.160958015267175,-1.93556106870229,0
4493,7.368097729492187,-1.8007207397460936,1.9622409912109375,16.726908396946566,0.49683587786259553,0.14840839694656482,0
4518,7.095158740234374,-2.0114104858398436,1.9861830078124998,21.047519083969465,2.138057251908397,2.8735992366412213,0
4543,7.329790502929687,-1.9515554443359375,2.189690148925781,23.612404580152674,11.634240458015269,4.972835877862595,0
4568,7.557239660644531,-1.8821235961914062,2.227997375488281,25.574236641221376,12.947217557251909,5.949935114503816,0
4593,7.511749829101562,-1.7025584716796873,2.4434755249023437,24.17729007633588,10.09225572519084,6.522454198473282,0
4618,7.298665881347655,-1.6857990600585937,2.6900782958984375,20.86431297709924,10.214393129770993,7.323980916030534,0
4643,7.303454284667969,-1.5373585571289061,2.745144934082031,16.29179389312977,9.809812977099238,7.965202290076335,0
4668,7.389645544433592,-1.4559557006835937,2.5990986328125,11.681106870229007,4.458667938931297,7.446118320610687,0
4693,7.260358654785155,-1.5948193969726563,2.570368212890625,8.062786259541985,0.5121030534351146,5.064438931297709,0
4718,7.145436975097655,-1.566088977050781,2.50333056640625,5.5971374045801525,-3.9611793893129774,3.4537519083969466,0
4743,6.9874196655273435,-1.556512170410156,2.4147451049804687,4.016984732824428,-3.2054541984732823,2.5987900763358778,0
4768,6.975448657226562,-1.6403092285156249,2.50333056640625,4.169656488549618,-0.5642328244274808,1.8277977099236642,0
4793,6.8772863891601554,-1.57327158203125,2.4530523315429686,5.97118320610687,0.6876755725190841,0.4537519083969465,0
4819,6.98263126220703,-1.621155615234375,2.4913595581054686,7.8261450381679385,0.573171755725191,-0.5462480916030535,0
4844,7.013755883789062,-1.6762222534179687,2.5296667846679686,8.963549618320611,-3.235988549618321,-0.8744923664122138,0
4869,7.21247462158203,-1.736077294921875,2.742750732421875,9.681106870229007,-6.854309160305343,-1.3248740458015265,0
4894,7.205292016601562,-1.6594628417968749,2.6517710693359375,9.215458015267176,-12.74743893129771,0.35451526717557247,0
4919,7.133465966796874,-1.5421469604492186,2.5272725830078127,7.429198473282442,-18.9001106870229,1.7056603053435113,0
4944,7.298665881347655,-1.6857990600585937,2.6230406494140626,7.100954198473282,-27.190187022900762,-2.5080801526717558,0
4969,7.291483276367187,-1.6618570434570312,2.725991320800781,4.81087786259542,-20.08331679389313,-7.1035,0
4994,6.922776220703125,-1.6834048583984373,2.6852898925781252,2.658206106870229,-11.24362213740458,-6.988996183206107,0
5019,6.769547314453125,-1.7528367065429686,2.46502333984375,-0.1662213740458015,-1.396293893129771,-4.080599236641222,0
5044,6.67617344970703,-1.5996078002929688,2.4099567016601564,-3.425763358778626,1.8174465648854963,-1.7981564885496182,0
5069,6.841373364257811,-1.6235498168945313,2.4410813232421877,-8.570801526717558,14.527370229007634,-1.4546450381679388,0
5094,7.20050361328125,-1.5110223388671875,2.208843762207031,-8.845610687022901,18.626606870229008,-0.29433969465648857,0
5119,7.4207701660156244,-1.3961006591796874,2.251939392089844,-4.082251908396947,10.11515648854962,-0.0271641221374046,0
5144,7.377674536132811,-1.4798977172851562,2.484176953125,-1.074618320610687,7.260194656488549,0.7209274809160305,0
5169,7.296271679687499,-1.630732421875,2.2208147705078125,-2.3036259541984734,10.802179389312977,1.8201641221374045,0
5194,7.4183759643554685,-1.602002001953125,2.041249645996094,-5.563167938931298,11.847980916030535,1.4919198473282442,0
5220,7.257964453124999,-1.6618570434570312,2.3189770385742188,-4.845610687022901,4.641874045801527,2.0033702290076336,0
5245,6.953900842285155,-1.5301759521484375,2.2591219970703125,-3.7845419847328245,2.9014160305343513,3.0262709923664124,0
5270,7.02093848876953,-1.5086281372070312,2.227997375488281,-4.2883587786259545,8.153324427480916,1.4308511450381678,0
5295,7.176561596679687,-1.4391962890624999,2.137017712402344,-4.295992366412214,8.336530534351144,-1.1035,0
5320,7.090370336914062,-1.3673702392578124,2.1777191406250003,-3.0593511450381676,1.7487442748091604,-2.569148854961832,0
5345,7.068822521972655,-1.4368020874023437,2.25433359375,-2.120419847328244,-1.1443854961832058,-3.317240458015267,0
5370,6.8389791625976555,-1.5182049438476561,2.3165828369140624,-0.19675572519083973,-1.129118320610687,-2.93556106870229,0
5395,6.915593615722655,-1.4918687255859375,2.4458697265625,0.34522900763358777,5.92431679389313,-1.6378511450381676,0
5420,7.0616399169921875,-1.3458224243164063,2.321371240234375,1.1009541984732825,8.290729007633589,-1.1416679389312976,0
5445,7.389645544433592,-1.3865238525390624,2.3165828369140624,2.558969465648855,3.054087786259542,-3.202736641221374,0
5470,7.432741174316406,-1.4032832641601563,2.321371240234375,5.765076335877862,-4.701637404580152,-5.882125954198473,0
5495,7.222051428222655,-1.3673702392578124,2.5655798095703126,8.360496183206108,-7.197820610687023,-6.485179389312978,0
5520,7.085581933593748,-1.4415904907226562,2.6805014892578125,10.558969465648854,-4.022248091603053,-4.256171755725191,0
5545,6.6833560546875,-1.544541162109375,2.5655798095703126,10.719274809160305,4.298362595419848,0.8888664122137404,0
5570,6.8389791625976555,-1.6427034301757812,2.5943102294921876,10.024618320610687,10.0998893129771,4.858332061068702,0
5595,7.028121093749999,-1.5493295654296875,2.6661362792968752,10.009351145038167,11.069354961832062,5.064438931297709,0
5621,7.030515295410155,-1.6235498168945313,2.773875354003906,7.9406488549618315,10.160958015267177,2.629324427480916,0
5646,7.31542529296875,-1.6355208251953124,2.7954231689453124,5.284160305343511,7.397599236641222,-0.34777480916030534,0
5671,7.564422265624999,-1.5134165405273436,2.84809560546875,4.032251908396947,-1.9382786259541982,-3.1035,0
5696,7.358520922851562,-1.4727151123046875,2.943863671875,2.64293893129771,-9.777973282442748,-3.2714389312977095,0
5721,7.267541259765625,-1.4703209106445312,3.0132955200195313,-0.14332061068702295,-4.602400763358778,-1.59968320610687,0
5746,7.380068737792969,-1.4798977172851562,2.9103448486328127,-1.9295801526717558,-1.678736641221374,0.11024045801526716,0
5771,7.406404956054687,-1.372158642578125,2.8983738403320314,-1.3112595419847328,-2.4344618320610687,1.4919198473282442,0
5796,7.377674536132811,-1.4751093139648437,2.754721740722656,2.3146946564885496,-6.999347328244275,2.2858129770992366,0
5821,6.86770958251953,-1.4918687255859375,2.716414514160156,4.612404580152671,-4.029881679389312,4.927034351145037,0
5846,6.6306836181640625,-1.6163672119140624,2.754721740722656,4.497900763358778,2.023553435114504,8.369782442748091,0
5871,6.621106811523437,-1.7336830932617187,2.7786637573242188,3.2230916030534353,10.473935114503817,9.285812977099237,0
5896,6.831796557617186,-1.707346875,2.615858044433594,1.8490458015267177,13.008286259541986,7.6827595419847325,0
5921,6.922776220703125,-1.7983265380859375,2.7379623291015625,2.5131679389312978,6.229660305343511,4.476652671755725,0
5946,6.915593615722655,-1.9587380493164062,2.876826025390625,2.7956106870229007,1.2601946564885498,0.43848473282442746,0
5971,7.145436975097655,-1.9611322509765625,2.9989303100585936,1.5818702290076336,-0.6482022900763358,-4.050064885496184,0
5996,7.387251342773436,-1.8390279663085938,3.2575040893554688,1.0856870229007634,-5.052782442748091,-5.9737290076335885,0
6022,7.511749829101562,-1.7408656982421875,3.3700315673828123,-0.8379770992366412,-5.167286259541985,-5.27907251908397,0
6047,7.4399237792968735,-1.544541162109375,3.3125707275390623,-4.295992366412214,-3.4344618320610683,-1.5157137404580152,0
6072,7.35373251953125,-1.5134165405273436,3.1880722412109375,-8.784541984732824,-1.1978206106870228,3.530087786259542,0
6097,7.322607897949218,-1.391312255859375,3.0085071166992186,-13.944847328244276,1.855614503816794,6.957568702290076,0
6122,7.107129748535155,-1.4128600708007812,2.6852898925781252,-16.921946564885495,0.13805725190839713,7.094973282442748,0
6147,6.886863195800781,-1.5924251953125,2.4338987182617187,-18.196755725190837,-1.4191946564885494,4.820164122137404,0
6172,6.9131994140624995,-1.86057578125,2.3333422485351565,-16.441030534351142,-3.480263358778626,0.23237786259541982,0
6197,7.040092102050781,-1.8988830078124999,2.218420568847656,-13.593702290076337,-4.037515267175573,-4.332507633587786,0
6222,7.138254370117187,-1.8797293945312499,2.263910400390625,-11.616603053435115,-4.251255725190839,-5.821057251908397,0
6247,7.222051428222655,-1.815085949707031,2.3357364501953124,-11.54790076335878,-2.762706106870229,-4.660751908396947,0
6272,7.243599243164062,-1.6857990600585937,2.271093005371094,-11.86087786259542,-2.6329351145038165,-1.5462480916030534,0
6297,7.181349999999999,-1.6977700683593748,2.0220960327148436,-12.288358778625955,-2.991713740458015,1.4842862595419848,0
6322,6.903622607421874,-1.815085949707031,2.0077308227539064,-11.647137404580153,-4.594767175572519,3.7361946564885495,0
6347,6.7647589111328115,-1.812691748046875,1.7707048583984373,-10.35706106870229,-1.9382786259541982,3.484286259541985,0
6372,6.908411010742186,-1.8581815795898438,1.7252150268554687,-7.5097328244274815,-1.8390419847328245,0.6598587786259542,0
6397,7.032909497070311,-1.8677583862304687,1.7204266235351562,-4.0593511450381685,-4.5642328244274815,-4.011896946564886,0
6423,7.1214949584960925,-1.8079033447265624,1.7371860351562498,-0.8227099236641221,-7.098583969465649,-7.363041984732824,0
6448,7.325002099609374,-1.7384714965820312,1.854501916503906,1.3681297709923665,-5.617667938931298,-8.210370229007633,0
6473,7.42316436767578,-1.7480483032226561,1.9718177978515625,2.856679389312977,-4.274156488549618,-6.859225190839695,0
6498,7.557239660644531,-1.6331266235351563,2.184901745605469,3.1238549618320612,-1.4497290076335876,-4.218003816793893,0
6523,7.667372937011717,-1.5708773803710936,2.223208972167969,3.047519083969466,0.7258435114503817,-2.2790725190839694,0
6548,7.66019033203125,-1.525387548828125,2.4123509033203128,2.7498091603053436,-0.17491984732824428,0.06443893129770983,0
6573,7.559633862304687,-1.621155615234375,2.4410813232421877,1.9788167938931296,-0.29705725190839694,2.7590954198473283,0
6598,7.425558569335936,-1.6259440185546874,2.4769943481445313,0.16202290076335873,4.496835877862596,4.988103053435114,0
6623,7.365703527832031,-1.544541162109375,2.38840888671875,-3.1662213740458016,7.702942748091603,5.4690190839694655,0
6648,7.394433947753906,-1.6738280517578124,2.5440319946289063,-5.242557251908397,4.145690839694657,3.5987900763358778,0
6673,7.27711806640625,-1.7719903198242186,2.5655798095703126,-7.7158396946564896,2.2983625954198477,-0.27143893129771,0
6698,7.329790502929687,-1.736077294921875,2.5009363647460936,-10.784541984732824,-0.3962938931297708,-4.149301526717558,0
6723,7.23881083984375,-1.6786164550781248,2.4434755249023437,-14.089885496183207,-7.632935114503816,-6.5309809160305345,0
6748,7.056851513671874,-1.7504425048828125,2.330948046875,-16.00591603053435,-13.55659923664122,-8.637851145038168,0
6773,6.8006719360351555,-1.8773351928710935,1.9861830078124998,-15.83797709923664,-17.991713740458014,-10.324874045801527,0
6798,6.724057482910156,-1.9371902343749998,1.9790004028320312,-12.883778625954198,-20.006980916030535,-10.75998854961832,0
6824,6.666596643066405,-2.0042278808593745,2.0484322509765627,-8.448664122137405,-13.92301145038168,-10.011896946564885,0
6849,6.963477648925781,-1.795932336425781,1.9622409912109375,-5.921946564885497,-3.6329351145038165,-8.233270992366412,0
6874,7.363309326171874,-1.5900309936523438,2.0268844360351563,-4.0669847328244275,-1.9917137404580152,-6.332507633587786,0
6899,7.69131495361328,-1.5613005737304686,1.9502699829101562,-1.6471374045801528,-5.373393129770992,-5.744721374045802,0
6924,7.487807812499999,-1.4798977172851562,2.1130756958007813,0.17729007633587784,-4.136751908396947,-3.8363244274809163,0
6949,7.356126721191406,-1.4751093139648437,2.1226525024414062,0.8872137404580153,1.0846221374045801,-0.8286908396946565,0
6974,7.368097729492187,-1.49665712890625,2.3931972900390623,1.9330152671755725,7.443400763358779,1.8277977099236642,0
6999,7.425558569335936,-1.4415904907226562,2.299823425292969,1.3146946564885496,12.359431297709925,2.980469465648855,0
7024,7.281906469726562,-1.3553992309570313,2.1729307373046876,0.4291984732824427,4.687675572519084,3.614057251908397,0
7049,6.901228405761718,-1.4391962890624999,2.2016611572265625,-1.4410305343511451,-0.04514885496183196,4.766729007633588,0
7074,6.79109512939453,-1.4391962890624999,2.1777191406250003,-4.975381679389313,4.825080152671756,4.323980916030534,0
7099,6.9491124389648435,-1.4822919189453125,1.9382989746093748,-6.586068702290077,3.4052328244274808,2.9041335877862595,0
7124,7.030515295410155,-1.2644195678710937,1.662965783691406,-4.051717557251909,-11.793240458015267,1.4766526717557251,0
7149,6.961083447265625,-1.4798977172851562,1.6940904052734373,-3.219656488549618,-12.365759541984731,-0.5080801526717557,0
7174,7.011361682128906,-1.5613005737304686,1.7060614135742187,-1.2578244274809163,-6.655835877862595,-2.6607519083969464,0
7199,7.1214949584960925,-1.506233935546875,1.7300034301757812,1.2383587786259542,-1.6482022900763358,-3.973729007633588,0
7225,7.241205041503906,-1.4535614990234373,1.7323976318359373,3.5131679389312978,0.11515648854961835,-4.011896946564886,0
7250,7.401616552734374,-1.4703209106445312,1.9359047729492187,5.658206106870229,-1.060416030534351,-3.782889312977099,0
7275,7.21247462158203,-1.487080322265625,2.0867394775390626,6.887213740458015,-1.2359885496183205,-3.1416679389312976,0
7300,7.260358654785155,-1.5301759521484375,2.2016611572265625,5.452099236641221,3.8098129770992366,-2.798156488549618,0
7325,7.296271679687499,-1.6067904052734374,2.160959729003906,2.5818702290076336,5.588438931297709,-2.988996183206107,0
7350,7.34654991455078,-1.5780599853515624,2.0580090576171877,0.7498091603053435,1.2907290076335878,-4.011896946564886,0
7375,7.102341345214843,-1.5684831787109375,2.0747684692382813,-0.24255725190839694,-2.9459122137404576,-5.1035,0
7400,7.138254370117187,-1.5804541870117186,2.053220654296875,-1.5402671755725188,-1.07568320610687,-6.363041984732825,0
7425,7.265147058105469,-1.6379150268554687,2.1250467041015626,-0.6776717557251909,0.0922557251908398,-7.26380534351145,0
7450,7.25078184814453,-1.5972135986328124,2.165748132324219,0.7956106870229007,0.6647748091603054,-6.859225190839695,0
7475,7.279512268066406,-1.55411796875,2.247150988769531,0.9253816793893129,4.802179389312977,-4.988996183206107,0
7500,7.1598021850585924,-1.5900309936523438,2.060403259277344,-0.12805343511450384,5.863248091603053,-2.134034351145038,0
7525,7.3082426879882805,-1.5373585571289061,2.0580090576171877,-1.9753816793893129,5.481568702290076,-0.2867061068702291,0
7550,7.372886132812499,-1.602002001953125,2.0675858642578127,-2.4181297709923664,3.2449274809160307,0.07970610687022894,0
7575,7.363309326171874,-1.6690396484374999,1.8952033447265624,-1.8074427480916029,1.1762251908396948,-0.17220229007633592,0
7601,7.43034697265625,-1.5684831787109375,1.9359047729492187,-0.6547709923664123,1.321263358778626,-0.721820610687023,0
7626,7.487807812499999,-1.5182049438476561,1.9957598144531248,1.2001908396946566,0.10752290076335891,-1.3248740458015265,0
7651,7.483019409179687,-1.3482166259765624,2.069980065917969,2.444465648854962,0.9090496183206108,-1.0500648854961834,0
7676,7.708074365234375,-1.2907557861328125,2.1250467041015626,2.0169847328244273,5.412866412213741,-1.584416030534351,0
7701,7.854120666503905,-1.123161669921875,2.00533662109375,1.2001908396946566,7.031187022900763,-2.202736641221374,0
7726,7.863697473144531,-1.1159790649414063,1.9574525878906248,2.444465648854962,-0.35812595419847315,-1.4622786259541982,0
7751,7.372886132812499,-1.1566804931640624,1.9406931762695312,3.459732824427481,-7.174919847328244,1.4766526717557251,0
7776,7.1214949584960925,-1.3003325927734375,1.9502699829101562,3.429198473282443,-5.961179389312978,6.117874045801527,0
7801,6.996996472167967,-1.4583499023437498,1.9981540161132811,3.261259541984733,1.1456908396946566,9.407950381679388,0
7826,7.037697900390625,-1.3290630126953125,2.041249645996094,2.9406488549618324,6.527370229007634,10.980469465648854,0
7851,7.037697900390625,-1.2716021728515625,2.1442003173828126,3.490267175572519,8.977751908396947,10.56825572519084,0
7876,7.095158740234374,-1.487080322265625,2.3165828369140624,4.016984732824428,11.76401145038168,8.37741603053435,0
7901,7.241205041503906,-1.6666454467773437,2.148988720703125,3.2536259541984736,11.657141221374046,5.644591603053435,0
7926,7.46147159423828,-1.6355208251953124,2.3453132568359374,2.322328244274809,9.840347328244276,3.4232175572519083,0
7951,7.13586016845703,-1.556512170410156,2.5248783813476563,3.0322519083969466,0.9243167938931298,2.629324427480916,0
7977,6.9131994140624995,-1.7480483032226561,2.4027740966796873,0.5131679389312976,4.481568702290076,3.5453549618320612,0
8002,6.925170422363281,-1.5852425903320313,2.539243591308594,0.13912213740458013,2.7411106870229007,4.698026717557251,0
8027,6.941929833984374,-1.4822919189453125,2.46502333984375,-2.402862595419847,6.229660305343511,5.22474427480916,0
8052,6.908411010742186,-1.5086281372070312,2.3668610717773437,-3.7998091603053434,7.535003816793893,4.972835877862595,0
8077,6.850950170898437,-1.544541162109375,2.2854582153320315,-3.86087786259542,8.90904961832061,3.8888664122137406,0
8102,6.886863195800781,-1.4751093139648437,2.232785778808594,-2.937213740458015,9.893782442748092,0.8888664122137404,0
8127,7.080793530273437,-1.4918687255859375,2.35010166015625,-0.12805343511450384,9.09225572519084,-3.6073167938931294,0
8152,7.236416638183592,-1.5804541870117186,2.31179443359375,3.9864503816793895,5.710576335877862,-8.11876717557252,0
8177,7.109523950195311,-1.6786164550781248,2.2686988037109375,5.80324427480916,5.038820610687023,-9.882125954198473,0
8202,7.260358654785155,-1.6642512451171874,2.213632165527344,5.1620229007633585,6.687675572519083,-9.614950381679389,0
8227,7.7751120117187495,-1.5948193969726563,2.127440905761719,4.642938931297709,-0.9535458015267175,-10.737087786259542,0
8252,7.636248315429687,-1.4056774658203124,2.1130756958007813,2.1162213740458014,-11.106217557251908,-10.767622137404581,0
8277,7.34654991455078,-1.2811789794921875,2.12025830078125,-2.005916030534351,-14.220721374045802,-7.271438931297711,0
8303,7.35373251953125,-1.1949877197265624,2.2064495605468752,-5.608969465648856,-11.197820610687023,-2.7828893129770993,0
8328,7.2316282348632805,-1.0561240234375,2.2591219970703125,-5.967748091603053,-9.785606870229007,1.8354312977099236,0
8353,7.0472747070312485,-1.0297878051757812,2.4243219116210937,-4.746374045801527,-7.533698473282442,4.629324427480916,0
8378,6.937141430664062,-1.257236962890625,2.3261596435546874,-5.379961832061069,-1.1672862595419846,4.583522900763358,0
8403,7.011361682128906,-1.4846861206054687,2.227997375488281,-5.425763358778626,1.6037061068702292,1.2323778625954198,0
8428,7.1957152099609365,-1.7121352783203125,2.175324938964844,-2.7998091603053434,-3.258889312977099,-3.668385496183206,0
8453,7.140648571777343,-1.6546744384765624,2.165748132324219,0.48263358778625953,-8.686370229007633,-7.60731679389313,0
8478,7.241205041503906,-1.6905874633789062,2.1322293090820312,4.093320610687023,-5.716904580152672,-9.187469465648855,0
8503,7.415981762695311,-1.575665783691406,2.3477074584960937,8.948282442748091,-0.7550725190839693,-8.592049618320612,0
8528,7.487807812499999,-1.4248310791015624,2.4147451049804687,12.497900763358778,2.58843893129771,-4.61495038167939,0
8553,7.408799157714843,-1.3601876342773438,2.4482639282226564,11.604770992366412,8.657141221374046,1.3163473282442748,0
8578,7.4566831909179685,-1.104008056640625,2.5655798095703126,7.536068702290076,12.886148854961833,6.011003816793893,0
8603,7.54526865234375,-1.0704892333984375,2.56079140625,3.3833969465648854,10.397599236641222,7.140774809160305,0
8628,7.5165382324218735,-0.9914805786132812,2.6038870361328126,-0.01354961832061069,4.076988549618321,4.820164122137404,0
8653,7.226839831542969,-1.1183732666015624,2.54163779296875,-1.9295801526717558,-3.694003816793893,1.1407748091603054,0
8679,6.946718237304688,-1.3625818359375,2.3668610717773437,-2.2807251908396946,-7.487896946564884,-2.4088435114503817,0
8704,6.810248742675781,-1.4703209106445312,2.1920843505859375,-1.5555343511450381,-5.823774809160305,-4.95082824427481,0
8729,6.929958825683593,-1.5493295654296875,2.1729307373046876,1.5055343511450383,-3.6482022900763353,-6.416477099236642,0
8754,7.073610925292969,-1.5613005737304686,2.2974292236328124,5.0551526717557245,-0.3504923664122137,-6.882125954198473,0
8779,7.377674536132811,-1.4822919189453125,2.251939392089844,7.978816793893129,4.054087786259542,-6.874492366412214,0
8804,7.605123693847655,-1.3386398193359375,2.3620726684570315,8.902480916030534,5.59607251908397,-5.676019083969466,0
8829,7.648219323730468,-1.3673702392578124,2.3931972900390623,7.757442748091603,4.4281335877862595,-2.9431946564885494,0
8854,7.578787475585936,-1.1949877197265624,2.5105131713867186,4.612404580152671,3.3823320610687024,0.8506984732824427,0
8879,7.593152685546873,-1.1064022583007813,2.5655798095703126,0.13912213740458013,2.7563778625954196,4.575889312977099,0
8904,7.265147058105469,-1.2117471313476562,2.309400231933594,-3.6929389312977094,1.6189732824427483,6.736194656488549,0
8929,7.222051428222655,-1.2811789794921875,2.3381306518554688,-5.0593511450381685,-1.342858778625954,6.308713740458015,0
8954,7.13586016845703,-1.295544189453125,2.378832080078125,-4.799809160305344,-2.8161412213740458,4.033904580152671,0
8979,7.0472747070312485,-1.1566804931640624,2.3836204833984374,-3.608969465648855,-2.9764465648854963,1.530087786259542,0
9004,6.9131994140624995,-1.065700830078125,2.38840888671875,-1.4181297709923664,-2.58713358778626,-0.5920496183206106,0
9030,6.941929833984374,-1.0417588134765625,2.3572842651367187,0.8795801526717557,0.5350038167938932,-2.6760190839694658,0
9055,7.054457312011718,-1.027393603515625,2.4410813232421877,2.658206106870229,2.4205,-3.3783091603053435,0
9080,7.085581933593748,-0.9699327636718749,2.3572842651367187,3.558969465648855,2.92431679389313,-3.1645687022900764,0
9105,7.0089674804687485,-0.9483849487304687,2.474600146484375,3.291793893129771,2.809812977099237,-1.9279274809160305,0
9130,7.054457312011718,-1.1375268798828124,2.4578407348632814,2.6276717557251907,3.023553435114504,-0.7905229007633588,0
9155,7.006573278808593,-1.2069587280273437,2.4458697265625,1.30706106870229,5.535003816793893,-0.8592251908396947,0
9180,7.056851513671874,-1.3577934326171874,2.4530523315429686,-0.04408396946564885,3.7487442748091606,-2.019530534351145,0
9205,7.217263024902343,-1.3099093994140625,2.283064013671875,-1.6318702290076335,0.8403473282442749,-3.996629770992366,0
9230,7.169378991699218,-1.3745528442382813,2.189690148925781,-3.7998091603053434,-2.701637404580153,-6.019530534351145,0
9255,7.38485714111328,-1.4008890625,2.194478552246094,-4.754007633587786,-5.274156488549618,-7.798156488549619,0
9280,7.480625207519531,-1.3170920043945311,2.2160263671875002,-4.3952290076335885,-7.5794999999999995,-8.45464503816794,0
9305,7.5141440307617176,-1.2021703247070312,2.290246618652344,-4.303625954198473,-6.213087786259543,-6.988996183206107,0
9330,7.655401928710936,-1.1447094848632813,2.3812262817382814,-4.868511450381679,-2.3046908396946564,-3.973729007633588,0
9355,7.5165382324218735,-1.0872486450195311,2.2854582153320315,-3.3494274809160305,-3.8237748091603057,-0.17983587786259536,0
9380,7.5907584838867175,-0.9435965454101563,2.2591219970703125,-3.1814885496183205,0.5579045801526719,2.7590954198473283,0
9406,7.612306298828124,-0.6634749511718749,2.4338987182617187,-1.2043893129770993,1.0464541984732825,3.7438282442748094,0
9431,7.669767138671873,-0.8574052856445312,2.3740436767578124,0.7879770992366413,0.6800419847328245,2.911767175572519,0
9456,7.401616552734374,-0.8717704956054688,2.2878524169921874,2.1314885496183207,-0.32759160305343493,1.8354312977099236,0
9481,7.2699354614257805,-0.9483849487304687,2.2950350219726565,2.5513358778625954,0.8250801526717558,1.743828244274809,0
9506,7.253176049804687,-1.084854443359375,2.31179443359375,4.1543893129770995,2.008286259541985,2.033904580152672,0
9531,7.138254370117187,-1.1830167114257812,2.5200899780273436,6.024618320610687,3.0846221374045806,2.262912213740458,0
9556,7.095158740234374,-1.1854109130859374,2.5847334228515626,5.95591603053435,7.75637786259542,3.1026068702290077,0
9581,7.31542529296875,-1.314697802734375,2.5153015747070313,4.96354961832061,8.58080534351145,3.8965,0
9606,7.2699354614257805,-1.3410340209960938,2.4913595581054686,2.490267175572519,5.58080534351145,4.38504961832061,0
9631,7.281906469726562,-1.2237181396484376,2.589521826171875,-2.1662213740458016,5.825080152671756,3.8354312977099236,0
9657,7.226839831542969,-1.4176484741210937,2.4530523315429686,-3.647137404580153,-1.2054541984732823,2.4537519083969466,0
9682,7.155013781738281,-1.3123036010742186,2.4434755249023437,-4.601335877862596,-5.006980916030534,0.6140572519083969,0
9707,7.114312353515625,-1.2045645263671874,2.1920843505859375,-5.929580152671756,-5.182553435114503,-0.21800381679389325,0
9732,7.1574079833984365,-1.1351326782226563,2.271093005371094,-5.502099236641222,-6.365759541984733,-0.5691488549618321,0
9757,6.915593615722655,-1.1255558715820313,2.3333422485351565,-3.830343511450381,-6.144385496183206,0.3468816793893129,0
9782,6.850950170898437,-1.324274609375,2.0388554443359377,-2.837977099236641,0.24492748091603067,0.7285610687022901,0
9807,7.095158740234374,-1.1638630981445313,2.184901745605469,-0.69293893129771,3.1914923664122137,-0.6989198473282444,0
9832,7.279512268066406,-1.0633066284179686,2.3644668701171874,2.589503816793893,1.0617213740458016,-2.6149503816793893,0
9857,7.34654991455078,-1.1901993164062499,2.4075625,2.5513358778625954,7.977751908396947,-3.6836526717557248,0
9882,7.57639327392578,-0.7257241943359375,2.6038870361328126,3.3910305343511453,9.153324427480916,-3.9126603053435116,0
9907,7.437529577636718,-0.9388081420898438,2.635011657714844,3.8643129770992366,3.7487442748091606,-3.1798358778625953,0
9933,7.351338317871092,-0.8286748657226563,2.7954231689453124,2.444465648854962,3.473935114503817,-2.5080801526717558,0
9958,7.198109411621092,-1.065700830078125,2.56079140625,0.8948473282442748,2.687675572519084,-0.9279274809160306,0
9983,7.068822521972655,-1.2213239379882812,2.340524853515625,-0.5708015267175574,2.08462213740458,0.033904580152671726,0
10008,7.071216723632811,-1.2428717529296875,2.3931972900390623,-0.525,2.0464541984732825,-0.30197328244274824,0
10033,7.018544287109374,-1.2859673828125,2.4434755249023437,0.1925572519083969,2.351797709923664,-0.6836526717557253,0
10058,7.202897814941406,-1.3458224243164063,2.5200899780273436,0.9024809160305343,2.8785152671755725,-1.4241106870229006,0
10083,7.1957152099609365,-1.3410340209960938,2.4985421630859377,0.8566793893129772,0.0922557251908398,-1.9584618320610687,0
10108,7.166984790039062,-1.30512099609375,2.4793885498046877,-1.4028625954198475,-0.625301526717557,-1.4775458015267176,0
10133,7.198109411621092,-1.2787847778320311,2.3931972900390623,-4.234923664122138,0.5502709923664123,-1.0958664122137405,0
10158,7.341761511230469,-1.3003325927734375,2.455446533203125,-4.357061068702291,-4.037515267175573,-1.6607519083969464,0
10183,7.284300671386718,-1.2213239379882812,2.4458697265625,-2.8303435114503817,-6.083316793893129,-2.416477099236641,0
10208,7.155013781738281,-1.2356891479492187,2.4458697265625,-1.5173664122137405,-3.029881679389313,-2.080599236641221,0
10233,7.109523950195311,-1.1997761230468749,2.3453132568359374,-1.456297709923664,0.489202290076336,-0.37830916030534356,0
10258,7.0999471435546875,-1.2692079711914062,2.227997375488281,-1.9677480916030534,0.573171755725191,1.247645038167939,0
10283,7.0472747070312485,-1.1590746948242188,2.204055358886719,-3.2654580152671753,0.45866793893129776,1.094973282442748,0
10309,7.17416739501953,-1.1375268798828124,2.1968727539062503,-4.089885496183206,1.3288969465648857,-0.355408396946565,0
10334,7.360915124511718,-0.9364139404296874,2.208843762207031,-1.8227099236641222,-1.793240458015267,-3.2409045801526717,0
10359,7.375280334472655,-0.8669820922851562,2.290246618652344,0.4979007633587786,-3.129118320610687,-4.721820610687023,0
10384,7.358520922851562,-0.8286748657226563,2.4674175415039064,2.3604961832061067,0.12279007633587802,-4.4241106870229014,0
10409,7.207686218261718,-0.9124719238281249,2.54163779296875,3.7345419847328247,5.947217557251909,-3.195103053435114,0
10434,7.325002099609374,-0.73051259765625,2.711626110839844,5.726908396946564,6.954851145038168,-2.202736641221374,0
10459,7.313031091308592,-0.9412023437499999,2.725991320800781,5.230725190839694,6.916683206106871,-1.8821259541984734,0
10484,7.360915124511718,-0.7329067993164062,3.156947619628906,3.207824427480916,10.244927480916031,-2.3554083969465647,0
10509,7.265147058105469,-0.9076835205078124,2.9007680419921877,1.1467557251908396,9.519736641221375,-3.088232824427481,0
10534,7.198109411621092,-1.0513356201171875,2.80978837890625,-2.257824427480916,5.687675572519083,-3.057698473282443,0
10559,7.066428320312499,-1.1471036865234374,2.673318884277344,-6.540267175572519,-0.4344618320610687,-3.2714389312977095,0
10584,7.068822521972655,-1.1997761230468749,2.627829052734375,-10.135687022900763,-2.686370229007634,-3.5844160305343507,0
10609,7.1214949584960925,-1.3170920043945311,2.4027740966796873,-10.593702290076337,-4.701637404580152,-4.385942748091604,0
10634,7.293877478027343,-1.2165355346679687,2.4769943481445313,-8.471564885496184,-4.411561068702291,-5.248538167938932,0
10659,7.370491931152343,-1.1686515014648438,2.4793885498046877,-6.341793893129771,-1.1062175572519082,-5.256171755725191,0
10685,7.485413610839843,-1.1901993164062499,2.3453132568359374,-6.578435114503817,4.901416030534351,-4.301973282442749,0
10710,7.511749829101562,-0.8406458740234375,2.2878524169921874,-4.441030534351145,-0.1520190839694655,-2.8592251908396946,0
10735,7.471048400878906,-1.1111906616210938,2.3692552734375,-5.4028625954198475,4.710576335877862,-0.6683854961832062,0
10760,7.377674536132811,-0.8526168823242187,2.4793885498046877,-2.570801526717557,2.0464541984732825,0.3010801526717557,0
10785,7.4183759643554685,-0.7783966308593749,2.4961479614257813,-2.937213740458015,3.2372938931297712,1.1102404580152672,0
10810,7.274723864746092,-0.8262806640625,2.5560030029296876,-3.868511450381679,5.92431679389313,1.911767175572519,0
10835,7.0999471435546875,-0.80712705078125,2.6421942626953125,-3.8761450381679388,6.4281335877862595,1.8354312977099236,0
10860,7.193321008300781,-0.7760024291992187,2.3836204833984374,-5.463931297709924,6.008286259541984,1.1331412213740457,0
10885,7.111918151855469,-0.9531733520507812,2.5368493896484376,-5.486832061068703,1.122790076335878,0.04153816793893128,0
10910,6.860526977539062,-1.123161669921875,2.4769943481445313,-6.250190839694657,3.4052328244274808,-0.43174427480916033,0
10935,6.939535632324218,-1.065700830078125,2.627829052734375,-4.899045801526718,2.321263358778626,-0.43174427480916033,0
10960,7.068822521972655,-1.1662572998046874,2.637405859375,-4.005916030534351,4.222026717557252,-0.5920496183206106,0
10985,7.243599243164062,-0.9603559570312499,2.4889653564453127,-3.1662213740458016,4.92431679389313,-0.7523549618320612,0
11010,7.298665881347655,-1.0633066284179686,2.4698117431640627,-4.051717557251909,9.0998893129771,-1.469912213740458,0
11036,7.348944116210936,-0.9076835205078124,2.7882405639648438,-1.4333969465648857,2.611339694656489,-2.019530534351145,0
11061,7.255570251464843,-0.9747211669921876,2.5081189697265627,-1.570801526717557,0.870881679389313,-0.9431946564885497,0
11086,7.23881083984375,-0.8933183105468749,2.611069641113281,-2.5173664122137405,0.34416412213740477,0.06443893129770983,0
11111,7.143042773437499,-1.0728834350585936,2.704443505859375,-2.005916030534351,-2.90774427480916,0.9041335877862595,0
11136,6.894045800781249,-1.1566804931640624,2.606281237792969,-1.9677480916030534,-1.694003816793893,2.0262709923664124,0
11161,7.128677563476562,-1.142315283203125,2.56079140625,-1.2578244274809163,-2.2894236641221375,1.1178740458015266,0
11186,7.370491931152343,-1.0297878051757812,2.5560030029296876,0.6811068702290076,-10.090950381679388,-2.6149503816793893,0
11211,7.286694873046874,-1.1207674682617188,2.663742077636719,0.7879770992366413,-14.739805343511449,-6.599683206106871,0
11236,7.226839831542969,-0.8190980590820313,2.6326174560546876,-1.7311068702290076,-12.739805343511449,-8.149301526717558,0
11261,7.39203974609375,-0.7568488159179687,2.6709246826171875,-4.135687022900764,-9.938278625954197,-7.44701145038168,0
11286,7.3824629394531245,-0.7472720092773437,2.5751566162109376,-4.799809160305344,-10.73217175572519,-6.347774809160306,0
11311,7.207686218261718,-0.7161473876953125,2.532060986328125,-4.387595419847329,-10.25125572519084,-4.187469465648856,0
11336,7.128677563476562,-0.9268371337890624,2.2686988037109375,-4.013549618320611,-5.495530534351145,-3.5691488549618318,0
11361,7.341761511230469,-0.8143096557617188,2.3548900634765624,-3.3799618320610687,-1.7092709923664122,-4.027164122137405,0
11387,7.21247462158203,-0.8238864624023438,2.1322293090820312,-0.10515267175572518,-8.159652671755724,-5.668385496183206,0
11412,7.102341345214843,-0.9244429321289063,2.237574182128906,4.696374045801527,-13.373393129770992,-7.95082824427481,0
11437,6.855738574218749,-1.15189208984375,2.148988720703125,8.375763358778626,-9.861942748091602,-10.477545801526718,0
11462,6.977842858886718,-1.218929736328125,2.2112379638671875,6.9330152671755725,10.43576717557252,-12.011896946564885,0
11487,7.147831176757811,-0.5916489013671875,2.299823425292969,6.4826335877862595,15.962484732824429,-11.737087786259542,0
11512,7.257964453124999,-0.8238864624023438,2.309400231933594,5.223091603053435,15.779278625954198,-11.187469465648855,0
11537,7.3082426879882805,-0.5341880615234375,2.570368212890625,0.841412213740458,25.397599236641224,-9.592049618320612,0
11562,7.542874450683592,-0.18942302246093748,2.644588464355469,-0.7005725190839694,17.863248091603054,-5.447011450381679,0
11587,7.389645544433592,-0.32349831542968743,2.608675439453125,0.03988549618320608,3.970118320610687,-1.1187671755725188,0
11612,7.564422265624999,-0.32828671875000004,2.7140203125,-1.6166030534351146,3.7792786259541984,1.094973282442748,0
11637,7.487807812499999,-0.4767272216796875,2.637405859375,-2.3646946564885494,4.038820610687023,0.8354312977099236,0
11662,7.415981762695311,-0.5270054565429687,2.615858044433594,-2.891412213740458,5.26782824427481,-0.5691488549618321,0
11687,7.339367309570311,-0.5317938598632812,2.6661362792968752,-2.120419847328244,2.4510343511450383,-1.7294541984732823,0
11712,7.435135375976562,-0.40490117187499997,2.769086950683594,-1.4181297709923664,-0.6176679389312976,-2.416477099236641,0
11738,7.27711806640625,-0.5078518432617187,2.7188087158203125,-0.2959923664122137,-2.671103053435114,-2.8134236641221375,0
11763,7.166984790039062,-0.510246044921875,2.608675439453125,0.39866412213740454,-4.426828244274809,-2.416477099236641,0
11788,7.274723864746092,-0.4408141967773438,2.6134638427734376,3.5131679389312978,-7.755072519083969,-1.4317442748091604,0
11813,7.116706555175781,-0.5270054565429687,2.5081189697265627,4.63530534351145,-3.5336984732824424,0.5606221374045801,0
11838,7.109523950195311,-0.5054576416015625,2.6661362792968752,5.123854961832061,3.5502709923664124,1.72856106870229,0
11863,7.387251342773436,-0.7640314208984375,2.5919160278320312,5.62767175572519,6.443400763358779,1.0873396946564886,0
11888,7.095158740234374,0.11703479003906249,2.7786637573242188,5.4826335877862595,2.6418740458015266,-0.05769847328244282,0
11913,7.504567224121092,-0.6227735229492187,2.7475391357421874,2.8872137404580154,0.3517977099236642,-0.08059923664122137,0
11938,7.291483276367187,-0.5341880615234375,2.8409130004882814,0.4902671755725191,-2.5031641221374046,1.3087137404580154,0
11963,7.253176049804687,-0.5629184814453125,2.8457014038085937,-2.02118320610687,-1.1214847328244275,3.4919198473282442,0
11988,7.114312353515625,-0.6084083129882812,2.9294984619140627,-4.53263358778626,2.5426374045801525,4.644591603053435,0
12013,7.2340224365234365,-0.6371387329101562,2.716414514160156,-5.967748091603053,2.8785152671755725,4.39268320610687,0
12038,7.279512268066406,-0.6395329345703125,2.740356530761719,-6.868511450381679,0.42813358778625965,2.8354312977099236,0
12063,7.291483276367187,-0.5413706665039062,2.80978837890625,-6.792175572519084,-0.8848435114503816,0.8583320610687023,0
12089,7.2699354614257805,-0.46954461669921876,2.654165270996094,-5.990648854961832,-2.174919847328244,-0.6683854961832062,0
12114,7.272329663085936,-0.53897646484375,2.687684094238281,-5.341793893129771,-1.7016374045801528,-1.530980916030534,0
12139,7.229234033203125,-0.481515625,2.606281237792969,-4.433396946564886,-1.4268282442748093,-0.9584618320610688,0
12164,7.310636889648436,-0.42405478515625006,2.687684094238281,-4.754007633587786,1.771645038167939,0.27817938931297703,0
12189,7.341761511230469,-0.510246044921875,2.5751566162109376,-4.04408396946565,1.6266068702290077,1.1407748091603054,0
12214,7.226839831542969,-0.5796778930664063,2.5751566162109376,-3.311259541984733,1.1456908396946566,1.6598587786259542,0
12239,7.320213696289062,-0.682628564453125,2.5560030029296876,-3.257824427480916,2.0922557251908396,1.9575687022900765,0
12264,7.20050361328125,-0.63474453125,2.5344551879882813,-3.051717557251908,1.9853854961832063,2.7056603053435113,0
12289,7.171773193359374,-0.625167724609375,2.6661362792968752,-2.6547709923664122,3.038820610687023,2.316347328244275,0
12314,7.128677563476562,-0.7257241943359375,2.577550817871094,-1.6853053435114504,1.7487442748091604,1.5377213740458013,0
12339,6.953900842285155,-0.7783966308593749,2.5727624145507813,-2.120419847328244,3.3441641221374048,1.2094770992366413,0
12364,7.181349999999999,-0.625167724609375,2.4865711547851563,-4.18912213740458,5.916683206106871,0.0873396946564885,0
12389,7.272329663085936,-0.6491097412109375,2.5536088012695313,-3.502099236641221,-0.09095038167938929,-1.0118969465648857,0
12414,7.207686218261718,-0.6562923461914062,2.532060986328125,-2.341793893129771,-2.671103053435114,-1.6607519083969464,0
12439,7.150225378417969,-0.6515039428710937,2.5536088012695313,-1.35706106870229,-0.5642328244274808,-0.6302175572519085,0
12465,7.31542529296875,-0.682628564453125,2.5943102294921876,-0.5402671755725191,3.267828244274809,0.7667290076335878,0
12490,7.408799157714843,-0.6036199096679687,2.61825224609375,0.17729007633587784,3.3288969465648854,1.415583969465649,0
12515,7.413587561035155,-0.6012257080078125,2.5440319946289063,0.3681297709923664,1.855614503816794,2.1713091603053436,0
12540,7.394433947753906,-0.5988315063476563,2.5919160278320312,0.2536259541984732,0.38233206106870243,2.4079503816793895,0
12565,7.248387646484374,-0.6419271362304687,2.627829052734375,0.7803435114503816,-0.6176679389312976,2.8506984732824425,0
12590,7.128677563476562,-0.6275619262695312,2.706837707519531,1.5131679389312978,1.6342404580152672,3.0491717557251907,0
12615,7.104735546874999,-0.6945995727539063,2.6996551025390625,1.9711832061068701,3.5655381679389313,2.965202290076336,0
12640,7.018544287109374,-0.711358984375,2.7092319091796875,2.6734732824427483,3.1227900763358782,2.4079503816793895,0
12665,7.080793530273437,-0.7329067993164062,2.7571159423828124,4.055152671755725,3.9624847328244277,1.0339045801526718,0
12690,7.0089674804687485,-0.6730517578125,2.735568127441406,4.63530534351145,5.542637404580153,-0.20273664122137414,0
12715,7.126283361816406,-0.7664256225585937,2.6565594726562503,4.536068702290076,5.244927480916031,-0.4241106870229009,0
12740,7.23881083984375,-0.7376952026367187,2.8744318237304687,4.520801526717557,3.519736641221374,-0.6607519083969465,0
12765,7.0831877319335925,-0.711358984375,2.8792202270507814,3.7040076335877865,2.7411106870229007,0.1713091603053435,0
12790,7.257964453124999,-0.7736082275390624,2.9510462768554686,1.7879770992366413,3.7945458015267177,0.4842862595419847,0
12815,7.13586016845703,-0.8119154541015625,2.745144934082031,0.6047709923664122,0.9395839694656489,0.37741603053435113,0
12841,6.941929833984374,-0.9627501586914062,2.8217593872070315,-0.4104961832061069,-0.7016374045801528,1.1026068702290077,0
12866,7.076005126953125,-0.9052893188476563,2.8313361938476564,-1.9219465648854963,2.710576335877863,0.4766526717557252,0
12891,7.341761511230469,-0.8597994873046875,2.69486669921875,-1.7692748091603052,0.6037061068702291,-1.3248740458015265,0
12916,7.370491931152343,-0.7903676391601563,2.692472497558594,-0.20438931297709928,-5.41919465648855,-2.9279274809160305,0
12941,7.222051428222655,-0.7903676391601563,2.80978837890625,0.4902671755725191,-6.785606870229007,-2.225637404580153,0
12966,6.946718237304688,-0.835857470703125,2.5536088012695313,-1.7998091603053434,0.672408396946565,0.8354312977099236,0
12991,6.934747229003906,-0.7783966308593749,2.5176957763671877,-0.4944656488549618,0.37469847328244277,2.6674923664122137,0
13016,7.171773193359374,-0.6706575561523438,2.570368212890625,0.4673664122137404,0.7640114503816795,3.1026068702290077,0
13041,7.25078184814453,-0.625167724609375,2.8433072021484374,2.0475190839694655,1.2296603053435116,2.1560419847328243,0
13066,7.28908907470703,-0.5078518432617187,2.8744318237304687,3.177290076335878,2.4586679389312978,0.5987900763358778,0
13091,7.274723864746092,-0.47433302001953126,2.9223158569335936,4.398664122137404,0.2678282442748092,-0.4241106870229009,0
13116,7.126283361816406,-0.606014111328125,2.8720376220703123,4.177290076335877,0.489202290076336,-0.6454847328244274,0
13141,7.080793530273437,-0.6515039428710937,2.9007680419921877,3.116221374045802,1.702942748091603,-0.019530534351145046,0
13167,7.049668908691406,-0.7831850341796874,2.790634765625,2.207824427480916,0.7334770992366413,0.8048969465648854,0
13192,7.0089674804687485,-0.864587890625,2.9366810668945313,1.4979007633587784,1.7182099236641222,0.7743625954198473,0
13217,7.056851513671874,-0.8526168823242187,2.8049999755859374,0.30706106870229005,1.9014160305343513,0.7285610687022901,0
13242,7.114312353515625,-0.8023386474609375,2.7978173706054688,-2.593702290076336,1.1380572519083971,0.8354312977099236,0
13267,7.1598021850585924,-0.720935791015625,2.781057958984375,-5.929580152671756,0.19912595419847334,0.46138549618320607,0
13292,7.336973107910155,-0.6108025146484375,2.6757130859375002,-7.677671755725191,-3.3123244274809163,-0.5004465648854962,0
13317,7.3441557128906245,-0.65389814453125,2.745144934082031,-6.677671755725191,-9.006980916030534,-1.385942748091603,0
13342,7.030515295410155,-0.8047328491210938,2.6565594726562503,-5.456297709923665,-7.312324427480915,-0.9660954198473283,0
13367,7.2699354614257805,-0.6323503295898437,2.9127390502929686,-4.357061068702291,-0.5794999999999999,-0.8592251908396947,0
13392,7.214868823242187,-0.8262806640625,2.6900782958984375,-2.6624045801526717,-0.8085076335877863,-0.4012099236641221,0
13417,7.253176049804687,-0.7903676391601563,2.9414694702148436,-3.341793893129771,-0.28942366412213727,-0.004263358778625936,0
13442,7.052063110351562,-0.8717704956054688,2.725991320800781,-2.5631679389312976,-4.3428587786259545,0.5224541984732824,0
13467,7.0233326904296876,-0.835857470703125,2.773875354003906,-2.6318702290076335,-4.136751908396947,1.4537519083969466,0
13492,7.0233326904296876,-0.8502226806640625,2.745144934082031,-3.143320610687023,-1.41156106870229,1.5606221374045801,0
13518,7.150225378417969,-0.8813473022460938,2.5919160278320312,-1.960114503816794,-1.342858778625954,0.362148854961832,0
13543,7.131071765136718,-0.8095212524414063,2.5248783813476563,0.23072519083969464,-3.2894236641221375,-1.7218206106870229,0
13568,7.164590588378906,-0.9723269653320312,2.6326174560546876,2.2688931297709924,-2.3199580152671753,-3.43174427480916,0
13593,7.341761511230469,-0.8574052856445312,2.697260900878906,3.2383587786259542,1.8632480916030536,-5.0958664122137405,0
13618,7.432741174316406,-0.6969937744140625,2.635011657714844,3.4520992366412213,1.2983625954198474,-4.882125954198473,0
13643,7.66019033203125,-0.6898111694335938,2.730779724121094,1.7421755725190837,-0.38866030534351137,-4.149301526717558,0
13668,7.542874450683592,-0.7041763793945313,2.704443505859375,-0.3799618320610687,-5.266522900763359,-1.93556106870229,0
13693,7.236416638183592,-0.76881982421875,2.704443505859375,-3.960114503816794,-6.73217175572519,2.133141221374046,0
13718,7.351338317871092,-0.6993879760742188,2.6661362792968752,-7.555534351145038,-3.1901870229007634,4.774362595419847,0
13743,7.351338317871092,-0.80712705078125,2.4458697265625,-8.379961832061069,-5.388660305343512,4.713293893129771,0
13768,7.435135375976562,-0.7281183959960937,2.4195335083007814,-7.769274809160306,-6.861942748091602,2.4537519083969466,0
13793,7.629065710449217,-0.7736082275390624,2.359678466796875,-5.227290076335878,-9.739805343511449,-1.0958664122137405,0
13818,7.686526550292968,-0.6586865478515624,2.3812262817382814,-2.3494274809160305,-13.92301145038168,-3.225637404580153,0
13844,7.34654991455078,-0.5365822631835937,2.3285538452148438,-0.7998091603053435,-13.762706106870228,-1.4241106870229006,0
13869,6.94432403564453,-0.5748894897460938,2.2878524169921874,-1.7463740458015264,-3.800874045801527,3.415583969465649,0
13894,6.819825549316406,-0.6227735229492187,2.290246618652344,0.6811068702290076,2.023553435114504,7.194209923664122,0
13919,6.9515066406249995,-0.701782177734375,2.330948046875,3.97118320610687,6.6495076335877865,7.652225190839694,0
13944,6.779124121093749,-0.8597994873046875,2.263910400390625,6.994083969465649,9.962484732824429,6.079706106870229,0
13969,6.771941516113281,-1.017816796875,2.247150988769531,8.902480916030534,12.61133969465649,3.995736641221374,0
13994,6.781518322753905,-1.2213239379882812,2.4243219116210937,10.45973282442748,12.641874045801528,1.6140572519083969,0
14019,6.980237060546874,-1.171045703125,2.6326174560546876,10.482633587786259,17.11515648854962,-1.93556106870229,0
14044,7.20050361328125,-0.9723269653320312,2.711626110839844,9.108587786259541,15.680041984732824,-5.050064885496184,0
14069,7.38485714111328,-0.7520604125976562,2.8887970336914064,5.719274809160305,9.863248091603054,-7.11876717557252,0
14094,7.4183759643554685,-0.6491097412109375,2.8887970336914064,0.45973282442748087,6.023553435114504,-8.202736641221374,0
14119,7.394433947753906,-0.5701010864257813,2.740356530761719,-3.540267175572519,-1.4420954198473281,-7.882125954198473,0
14144,7.176561596679687,-0.6969937744140625,2.7786637573242188,-5.715839694656489,-4.709270992366411,-6.4317442748091604,0
14169,7.222051428222655,-0.7831850341796874,2.711626110839844,-5.433396946564886,-4.58713358778626,-5.240904580152672,0
14195,7.183744201660155,-0.7760024291992187,2.711626110839844,-3.7005725190839693,-3.3199580152671753,-4.553881679389313,0
14220,7.169378991699218,-0.6754459594726563,2.577550817871094,-2.9219465648854963,-0.27415648854961816,-4.050064885496184,0
14245,7.31542529296875,-0.5940431030273438,2.5200899780273436,-1.7998091603053434,-0.6176679389312976,-4.233270992366412,0
14270,7.53808604736328,-0.6778401611328125,2.50333056640625,0.45973282442748087,-3.457362595419847,-5.447011450381679,0
14295,7.61470050048828,-0.63474453125,2.635011657714844,3.1543893129770995,-4.3428587786259545,-5.355408396946565,0
14320,7.550057055664062,-0.625167724609375,2.7140203125,5.0551526717557245,-1.7703396946564887,-3.6149503816793893,0
14345,7.686526550292968,-0.6562923461914062,2.7523275390625,6.8261450381679385,-0.6863702290076334,-0.6149503816793894,0
14370,7.4566831909179685,-0.5844662963867188,2.8457014038085937,6.154389312977099,2.954851145038168,4.033904580152671,0
14395,7.372886132812499,-0.5892546997070313,2.8624608154296873,2.3833969465648854,7.015919847328245,8.759095419847329,0
14420,7.332184704589843,-0.5557358764648438,2.800211572265625,-1.509732824427481,6.603706106870229,11.255278625954197,0
14446,7.272329663085936,-0.606014111328125,2.838518798828125,-3.5937022900763353,1.8937824427480918,10.37741603053435,0
14471,7.214868823242187,-0.6275619262695312,2.730779724121094,-4.845610687022901,-1.5413320610687022,7.621690839694656,0
14496,7.092764538574218,-0.586860498046875,2.7523275390625,-4.670038167938932,-1.9840801526717557,4.011003816793893,0
14521,6.996996472167967,-0.5988315063476563,2.6565594726562503,-3.616603053435114,-1.5718664122137405,0.8506984732824427,0
14546,7.107129748535155,-0.5533416748046875,2.761904345703125,-1.8761450381679388,-0.846675572519084,-1.2332709923664122,0
14571,7.016150085449218,-0.682628564453125,2.615858044433594,0.28416030534351144,-0.31232442748091604,-2.1111335877862594,0
14596,6.927564624023437,-0.6754459594726563,2.7786637573242188,0.6811068702290076,3.672408396946565,-0.9660954198473283,0
14621,7.087976135253906,-0.8526168823242187,2.6805014892578125,0.20019083969465645,5.901416030534351,0.22474427480916026,0
14646,7.188532604980469,-0.8262806640625,2.644588464355469,0.45209923664122137,2.489202290076336,-0.43174427480916033,0
14671,7.281906469726562,-1.0417588134765625,2.615858044433594,0.4215648854961832,-1.3581259541984734,-2.2790725190839694,0
14696,7.133465966796874,-1.1064022583007813,2.46502333984375,0.07041984732824424,-5.312324427480917,-3.416477099236641,0
14721,7.150225378417969,-0.9124719238281249,2.4219277099609378,-1.8456106870229005,-3.4191946564885494,-4.263805343511451,0
14746,7.34654991455078,-0.7353010009765625,2.4913595581054686,-2.3723282442748093,-5.785606870229007,-4.347774809160306,0
14772,7.336973107910155,-0.6730517578125,2.42671611328125,-1.960114503816794,-8.823774809160305,-4.263805343511451,0
14797,7.272329663085936,-0.6131967163085937,2.4889653564453127,-2.3265267175572517,-7.197820610687023,-2.8973931297709923,0
14822,7.336973107910155,-0.4575736083984375,2.4578407348632814,-2.525,-4.91537786259542,-0.8821259541984733,0
14847,7.265147058105469,-0.3905359619140625,2.4099567016601564,-2.02881679389313,-5.144385496183206,0.5148206106870228,0
14872,7.214868823242187,-0.4072953735351562,2.474600146484375,-0.3646946564885496,-5.73217175572519,1.9270343511450383,0
14897,6.9874196655273435,-0.43841999511718754,2.548820397949219,0.6811068702290076,-2.08331679389313,3.06443893129771,0
14922,7.1214949584960925,-0.4671504150390625,2.417139306640625,1.7803435114503818,2.2830954198473283,3.011003816793893,0
14947,7.356126721191406,-0.4072953735351562,2.57994501953125,3.30706106870229,5.09225572519084,0.8812328244274809,0
14972,7.597941088867187,-0.4551794067382813,2.761904345703125,6.123854961832061,2.3136297709923666,-1.8973931297709923,0
14997,7.3824629394531245,-0.4312373901367188,2.8241535888671874,7.322328244274809,1.1685916030534353,-3.4775458015267176,0
15022,7.040092102050781,-0.6131967163085937,2.7882405639648438,5.368129770992366,3.7182099236641224,-1.6149503816793893,0
15047,6.977842858886718,-0.8143096557617188,2.723597119140625,1.6887404580152672,7.4281335877862595,1.2705458015267175,0
15072,6.920382019042967,-1.0106341918945312,2.7475391357421874,0.03988549618320608,6.947217557251909,2.484286259541985,0
15097,6.79109512939453,-1.09443125,2.6134638427734376,-0.6700381679389312,6.038820610687022,2.3239809160305342,0
15122,6.894045800781249,-1.1997761230468749,2.615858044433594,-1.2043893129770993,7.634240458015267,0.02627099236641217,0
15148,7.1214949584960925,-1.0896428466796875,2.5823392211914062,-1.341793893129771,6.519736641221375,-3.6836526717557248,0
15173,7.4399237792968735,-1.0010573852539062,2.6038870361328126,-1.410496183206107,0.5502709923664123,-7.515713740458015,0
15198,7.523720837402343,-0.88374150390625,2.620646447753906,-2.2654580152671753,-6.373393129770992,-9.477545801526718,0
15223,7.578787475585936,-0.7329067993164062,2.620646447753906,-3.509732824427481,-8.464996183206106,-8.706553435114504,0
15248,7.554845458984373,-0.49827503662109374,2.606281237792969,-4.03645038167939,-7.022248091603053,-5.94319465648855,0
15273,7.53808604736328,-0.5341880615234375,2.5990986328125,-3.334160305343511,-5.701637404580152,-1.9966297709923664,0
15298,7.523720837402343,-0.3115273071289062,2.697260900878906,-1.960114503816794,-1.6711030534351146,2.4690190839694655,0
15323,7.437529577636718,-0.4168721801757812,2.4985421630859377,-0.8150763358778627,1.2601946564885498,6.22474427480916,0
15348,7.310636889648436,-0.4551794067382813,2.5368493896484376,1.0246183206106871,2.802179389312977,8.385049618320611,0
15373,7.253176049804687,-0.567706884765625,2.5990986328125,3.0856870229007636,4.977751908396947,8.362148854961832,0
15398,7.219657226562499,-0.5270054565429687,2.764298547363281,4.284160305343511,6.901416030534351,7.606423664122137,0
15423,7.102341345214843,-0.5246112548828125,2.769086950683594,4.620038167938931,7.367064885496184,6.71329389312977,0
15448,7.23881083984375,-0.682628564453125,2.84809560546875,4.436832061068702,8.985385496183206,4.942301526717557,0
15474,7.1957152099609365,-0.797550244140625,2.9821708984375,4.352862595419847,7.90904961832061,3.6674923664122137,0
15499,7.042486303710937,-1.1159790649414063,3.00132451171875,4.184923664122137,8.222026717557252,2.751461832061069,0
15524,6.98263126220703,-1.2069587280273437,2.9749882934570313,3.97881679389313,10.527370229007634,1.7819961832061069,0
15549,7.064034118652343,-1.2261123413085937,2.8528840087890623,5.177290076335877,7.382332061068702,0.9423015267175572,0
15574,7.071216723632811,-1.1830167114257812,2.8648550170898437,5.0475190839694655,6.061721374045801,1.3239809160305342,0
15599,7.133465966796874,-1.0345762084960937,2.9558346801757813,4.123854961832061,7.038820610687022,2.079706106870229,0
15624,7.341761511230469,-0.8981067138671874,2.991747705078125,2.8032442748091606,6.489202290076335,2.079706106870229,0
15649,7.4566831909179685,-0.625167724609375,3.0085071166992186,1.1162213740458014,2.809812977099237,1.5606221374045801,0
15674,7.6266715087890615,-0.5413706665039062,2.8983738403320314,-0.8990458015267176,-0.3962938931297708,1.1407748091603054,0
15699,7.363309326171874,-0.5317938598632812,2.9318926635742186,-2.69293893129771,-6.541332061068703,1.8583320610687024,0
15724,7.018544287109374,-0.5150344482421875,3.0180839233398435,-4.937213740458016,-8.335225190839694,4.171309160305343,0
15749,6.807854541015625,-0.644321337890625,2.735568127441406,-6.486832061068703,-6.09095038167939,5.8965,0
15774,6.779124121093749,-0.6969937744140625,2.646982666015625,-6.04408396946565,-5.190187022900764,6.087339694656488,0
15799,6.862921179199218,-0.701782177734375,2.7379623291015625,-3.53263358778626,-4.716904580152672,4.04917175572519,0
15825,6.884468994140625,-0.7233299926757812,2.69486669921875,-1.3112595419847328,-3.877209923664122,1.247645038167939,0
15850,7.004179077148437,-0.711358984375,2.69486669921875,-0.6471374045801527,-3.2054541984732823,-1.3325076335877863,0
15875,7.274723864746092,-0.6036199096679687,2.761904345703125,-0.45629770992366414,-4.426828244274809,-4.118767175572519,0
15900,7.490202014160155,-0.5557358764648438,2.706837707519531,1.0551526717557251,-7.938278625954197,-6.469912213740458,0
15925,7.219657226562499,-0.5198228515625,2.69486669921875,2.0169847328244273,-9.373393129770992,-6.050064885496184,0
15950,7.2699354614257805,-0.38574755859375,2.8887970336914064,2.711641221374046,-7.487896946564884,-4.080599236641222,0
15975,7.032909497070311,-0.8143096557617188,2.606281237792969,2.574236641221374,-2.6176679389312976,-2.1951030534351146,0
16000,6.932353027343749,-0.9172603271484374,2.4458697265625,3.261259541984733,0.7945458015267176,-0.7981564885496183,0
16025,6.9515066406249995,-0.9028951171874999,2.4219277099609378,3.276526717557252,2.107522900763359,0.6522251908396947,0
16050,7.128677563476562,-0.9938747802734376,2.567974011230469,2.711641221374046,3.374698473282443,0.30871374045801525,0
16075,7.348944116210936,-0.80712705078125,2.6852898925781252,2.8185114503816795,0.7487442748091604,-1.9431946564885494,0
16100,7.554845458984373,-0.7257241943359375,2.7475391357421874,2.665839694656489,-2.556599236641221,-4.324874045801527,0
16125,7.25078184814453,-0.9316255371093749,2.4219277099609378,-0.8456106870229009,1.7487442748091604,-5.11113358778626,0
16150,7.38485714111328,-0.1798462158203125,3.046814343261719,2.207824427480916,-9.938278625954197,-3.859225190839694,0
16176,7.413587561035155,-0.6227735229492187,2.8265477905273437,0.4902671755725191,-6.831408396946564,-1.1416679389312976,0
16201,7.164590588378906,-0.6012257080078125,2.7188087158203125,-0.9906488549618321,-3.701637404580153,1.545354961832061,0
16226,7.09755294189453,-0.6802343627929688,2.620646447753906,-1.891412213740458,-1.7550725190839693,3.2705458015267177,0
16251,7.085581933593748,-0.7616372192382812,2.637405859375,-1.3112595419847328,-2.1367519083969464,3.4079503816793895,0
16276,7.087976135253906,-0.9699327636718749,2.5847334228515626,-0.20438931297709928,-1.8008740458015264,1.8277977099236642,0
16301,7.253176049804687,-0.9747211669921876,2.6709246826171875,0.9559160305343511,-0.07568320610687018,0.17894274809160304,0
16326,7.406404956054687,-0.9172603271484374,2.7475391357421874,1.7650763358778625,0.3517977099236642,-1.3783091603053435,0
16351,7.389645544433592,-0.8430400756835937,2.6613478759765625,-0.5173664122137405,6.115156488549619,-2.080599236641221,0
16376,7.451894787597655,-0.40490117187499997,2.7834521606445315,0.7803435114503816,0.5808053435114505,-2.057698473282443,0
16401,7.351338317871092,-0.5629184814453125,2.69486669921875,-0.19675572519083973,-0.8543091603053434,-0.5920496183206106,0
16426,7.186138403320311,-0.7424836059570312,2.654165270996094,-0.5555343511450382,-0.9153778625954199,1.0568053435114504,0
16451,6.963477648925781,-0.8143096557617188,2.5081189697265627,-0.5479007633587786,1.0693549618320612,1.7590954198473283,0
16476,6.896440002441406,-0.9842979736328126,2.484176953125,-0.807442748091603,3.206759541984733,1.6064236641221372,0
16501,7.171773193359374,-1.0106341918945312,2.5990986328125,-0.7311068702290077,4.367064885496183,0.2018435114503816,0
16526,7.253176049804687,-0.8574052856445312,2.548820397949219,-0.21202290076335883,2.0006526717557254,-1.988996183206107,0
16552,7.313031091308592,-0.6491097412109375,2.611069641113281,-0.40286259541984737,-2.228354961832061,-3.4088435114503812,0
16577,7.313031091308592,-0.567706884765625,2.5344551879882813,-1.3188931297709923,-5.274156488549618,-2.538614503816794,0
16602,7.17416739501953,-0.5892546997070313,2.4985421630859377,-1.8150763358778623,-4.396293893129771,-0.7905229007633588,0
16627,7.21247462158203,-0.5605242797851563,2.46502333984375,-0.8608778625954198,-0.19782061068702284,0.42321755725190835,0
16652,7.35373251953125,-0.5126402465820312,2.5105131713867186,2.2154580152671755,1.5502709923664124,0.446118320610687,0
16677,7.336973107910155,-0.63474453125,2.615858044433594,5.81087786259542,0.5350038167938932,-0.011896946564885491,0
16702,7.188532604980469,-0.6874169677734375,2.7188087158203125,7.787977099236641,3.008286259541985,0.8354312977099236,0
16727,7.322607897949218,-0.625167724609375,2.819365185546875,7.7116412213740455,6.802179389312977,2.6216908396946565,0
16752,7.303454284667969,-0.6227735229492187,2.8792202270507814,6.6047709923664115,8.328896946564885,4.087339694656489,0
16777,7.260358654785155,-0.6945995727539063,3.020478125,5.039885496183206,8.664774809160306,4.430851145038168,0
16802,7.162196386718748,-0.6395329345703125,3.137794006347656,4.001717557251908,7.611339694656488,3.40031679389313,0
16827,7.064034118652343,-0.6610807495117187,3.030054931640625,2.375763358778626,8.000652671755725,0.8583320610687023,0
16852,6.963477648925781,-0.7760024291992187,3.03963173828125,0.6658396946564885,5.92431679389313,-1.5920496183206105,0
16877,6.841373364257811,-0.9292313354492188,2.8504898071289064,-1.3265267175572517,2.5502709923664124,-3.0424312977099235,0
16902,6.7599705078125,-1.0058457885742187,2.7930289672851565,-2.471564885496183,1.9243167938931298,-4.027164122137405,0
16927,6.894045800781249,-0.9435965454101563,2.663742077636719,-3.525,2.6266068702290077,-4.843958015267176,0
16953,7.052063110351562,-0.8334632690429687,2.663742077636719,-3.7845419847328245,0.6189732824427482,-5.691286259541985,0
16978,7.152619580078125,-0.6850227661132813,2.6805014892578125,-4.005916030534351,-2.678736641221374,-6.080599236641222,0
17003,7.356126721191406,-0.61559091796875,2.5536088012695313,-4.525,-5.9001106870229005,-5.737087786259543,0
17028,7.34654991455078,-0.4767272216796875,2.5464261962890626,-4.975381679389313,-6.274156488549618,-5.172202290076336,0
17053,7.50696142578125,-0.3019505004882812,2.625434851074219,-4.303625954198473,-5.74743893129771,-4.859225190839695,0
17078,7.557239660644531,-0.376170751953125,2.69486669921875,-2.18912213740458,-8.21308778625954,-4.363041984732825,0
17103,7.43034697265625,-0.47433302001953126,2.761904345703125,-0.4944656488549618,-7.045148854961832,-3.050064885496183,0
17128,7.298665881347655,-0.5844662963867188,2.649376867675781,-0.028816793893129744,-4.258889312977098,-0.7752557251908397,0
17153,7.226839831542969,-0.740089404296875,2.606281237792969,-1.8608778625954199,-1.9840801526717557,0.9041335877862595,0
17178,7.169378991699218,-0.6945995727539063,2.5919160278320312,-3.2959923664122135,-5.373393129770992,1.2094770992366413,0
17203,7.076005126953125,-0.76881982421875,2.4410813232421877,-4.387595419847329,-4.617667938931298,0.4155839694656488,0
17228,7.28908907470703,-0.7137531860351563,2.38840888671875,-2.341793893129771,-5.961179389312978,-2.1798358778625953,0
17253,7.310636889648436,-0.606014111328125,2.5272725830078127,0.9024809160305343,-6.381026717557251,-4.660751908396947,0
17278,7.5165382324218735,-0.5054576416015625,2.5631856079101563,3.8490458015267177,-3.7474389312977094,-6.11113358778626,0
17303,7.562028063964843,-0.46236201171875,2.630223254394531,4.902480916030534,-1.694003816793893,-5.149301526717558,0
17328,7.638642517089843,-0.53897646484375,3.0037187133789063,1.9788167938931296,10.603706106870229,-1.3096068702290076,0
17354,7.178955798339843,-0.5964373046875,2.637405859375,4.719274809160305,1.2296603053435116,3.8965,0
17379,6.908411010742186,-0.57728369140625,2.6757130859375002,1.871946564885496,6.008286259541984,8.8965,0
17404,6.819825549316406,-0.6969937744140625,2.54163779296875,-1.1967557251908398,10.458667938931299,10.88123282442748,0
17429,6.795883532714844,-0.797550244140625,2.678107287597656,-2.7845419847328245,10.023553435114504,9.117874045801527,0
17454,6.9515066406249995,-0.8406458740234375,2.5560030029296876,-3.746374045801527,7.0922557251908405,4.5682557251908396,0
17479,6.9874196655273435,-0.816703857421875,2.4482639282226564,-3.6624045801526717,1.1838587786259542,-2.1035,0
17504,6.937141430664062,-0.625167724609375,2.3716494750976564,-2.837977099236641,-7.9001106870229005,-7.721820610687024,0
17529,6.90601680908203,-0.7448778076171875,2.3644668701171874,-2.738740458015267,-11.052782442748091,-11.149301526717558,0
17554,7.23881083984375,-0.6084083129882812,2.3165828369140624,-2.647137404580153,-7.06041603053435,-12.973729007633588,0
17579,7.61470050048828,-0.38814176025390623,2.3261596435546874,0.558969465648855,-11.381026717557251,-13.141667938931299,0
17604,7.624277307128906,-0.3258925170898437,2.577550817871094,4.757442748091603,-13.785606870229007,-10.584416030534351,0
17629,7.672161340332031,-0.22054764404296875,2.606281237792969,6.062786259541984,-4.3581259541984725,-5.95082824427481,0
17654,7.846938061523436,-0.029011511230468745,2.6900782958984375,5.63530534351145,4.046454198473283,-0.553881679389313,0
17679,7.722439575195312,-0.06013613281249999,2.735568127441406,5.642938931297709,3.92431679389313,4.209477099236641,0
17704,7.310636889648436,-0.26364327392578124,2.654165270996094,4.253625954198474,3.92431679389313,7.514820610687022,0
17729,7.183744201660155,-0.4575736083984375,2.551214599609375,2.352862595419847,7.718209923664123,8.117874045801527,0
17755,7.09755294189453,-0.6874169677734375,2.6421942626953125,3.0551526717557254,6.275461832061069,5.827797709923664,0
17780,7.052063110351562,-0.8119154541015625,2.6613478759765625,3.6276717557251907,5.153324427480916,3.469019083969466,0
17805,7.042486303710937,-0.8502226806640625,2.7475391357421874,2.2383587786259542,5.237293893129771,1.6674923664122137,0
17830,7.23881083984375,-0.7831850341796874,2.8624608154296873,-0.34179389312977104,5.206759541984733,-0.019530534351145046,0
17855,7.317819494628906,-0.6874169677734375,2.8840086303710937,-3.3646946564885494,1.3670648854961833,-1.27143893129771,0
17880,7.339367309570311,-0.5198228515625,2.8217593872070315,-6.089885496183206,-4.335225190839694,-1.584416030534351,0
17905,7.224445629882811,-0.5030634399414062,2.673318884277344,-7.738740458015268,-6.755072519083969,-0.8592251908396947,0
17930,7.155013781738281,-0.4168721801757812,2.6038870361328126,-7.471564885496184,-5.182553435114503,-0.8515916030534351,0
17955,7.131071765136718,-0.491092431640625,2.5081189697265627,-4.662404580152672,-4.617667938931298,-1.27143893129771,0
17984,7.0257268920898435,-0.4671504150390625,2.3548900634765624,-0.7463740458015268,-2.5031641221374046,-1.4088435114503817,0
18009,7.028121093749999,-0.481515625,2.4243219116210937,2.7345419847328247,0.7487442748091604,-0.9584618320610688,0
18034,7.214868823242187,-0.491092431640625,2.5248783813476563,5.169656488549618,4.4281335877862595,0.19420992366412215,0
18059,7.377674536132811,-0.4072953735351562,2.539243591308594,6.864312977099236,7.4205000000000005,0.033904580152671726,0
18084,7.58357587890625,-0.3618055419921875,2.639800061035156,7.688740458015267,5.09225572519084,-0.7294541984732824,0
18109,7.61470050048828,-0.2373070556640625,2.8049999755859374,6.200190839694656,3.4128664122137407,-1.3477748091603052,0
18134,7.66019033203125,-0.19899982910156247,2.800211572265625,3.2536259541984736,1.8479809160305345,-1.469912213740458,0
18159,7.46147159423828,-0.21097083740234376,2.781057958984375,1.322328244274809,-3.808507633587786,-0.034797709923664155,0
18184,7.073610925292969,-0.357017138671875,2.857672412109375,-0.9066793893129771,-3.556599236641221,3.39268320610687,0
18209,6.7623647094726556,-0.510246044921875,2.8433072021484374,-2.273091603053435,3.9014160305343513,6.858332061068702,0
18234,6.850950170898437,-0.5054576416015625,2.6805014892578125,-1.410496183206107,9.626606870229008,6.827797709923664,0
18259,6.848555969238281,-0.5413706665039062,2.7379623291015625,0.5513358778625954,8.58080534351145,4.40031679389313,0
18284,6.908411010742186,-0.6299561279296875,2.6326174560546876,0.3681297709923664,8.290729007633589,0.8659656488549617,0
18309,7.011361682128906,-0.5174286499023437,2.620646447753906,-0.8685114503816794,6.054087786259542,-2.889759541984733,0
18335,7.327396301269531,-0.5030634399414062,2.611069641113281,-0.9066793893129771,1.3670648854961833,-7.317240458015268,0
18360,7.358520922851562,-0.48869822998046875,2.6709246826171875,0.24599236641221373,-4.556599236641221,-9.569148854961833,0
18385,7.114312353515625,-0.548553271484375,2.6900782958984375,-0.028816793893129744,-4.068049618320611,-8.363041984732824,0
18410,7.310636889648436,-0.4958808349609375,2.6517710693359375,-0.9219465648854962,0.28309541984732833,-4.76762213740458,0
18435,7.43034697265625,-0.38574755859375,2.6038870361328126,-1.3799618320610687,2.061721374045802,-1.530980916030534,0
18460,7.49977882080078,-0.2564606689453125,2.620646447753906,-1.1509541984732823,1.504469465648855,0.13314122137404572,0
18485,7.463865795898436,-0.20378823242187497,2.6038870361328126,-0.9219465648854962,0.29836259541984744,0.9652022900763358,0
18510,7.370491931152343,-0.30434470214843745,2.5296667846679686,-1.1814885496183205,-2.464996183206107,1.545354961832061,0
18535,7.224445629882811,-0.3115273071289062,2.745144934082031,-1.2196564885496182,-5.190187022900764,2.743828244274809,0
18560,7.17416739501953,-0.37377655029296875,2.606281237792969,-1.3875954198473281,-3.0833167938931294,3.018637404580153,0
18585,7.298665881347655,-0.4168721801757812,2.6326174560546876,0.29942748091603055,-2.045148854961832,2.262912213740458,0
18610,7.329790502929687,-0.3522287353515625,2.692472497558594,2.4826335877862595,-2.159652671755725,0.8048969465648854,0
18635,7.358520922851562,-0.36898814697265625,2.73317392578125,4.7116412213740455,-0.2817900763358778,-0.385942748091603,0
18660,7.260358654785155,-0.4408141967773438,2.86724921875,6.513167938931297,2.0159198473282443,0.23237786259541982,0
18685,7.090370336914062,-0.4575736083984375,2.819365185546875,6.070419847328244,5.290729007633588,2.3545152671755725,0
18710,7.133465966796874,-0.4312373901367188,2.9606230834960936,4.284160305343511,9.305996183206107,4.0186374045801525,0
18735,7.0233326904296876,-0.5317938598632812,2.8720376220703123,2.5360687022900765,8.275461832061069,4.1331412213740455,0
18761,6.992208068847655,-0.740089404296875,2.8361245971679687,0.3604961832061069,8.0998893129771,3.7438282442748094,0
18786,6.927564624023437,-0.7664256225585937,2.8911912353515623,-1.960114503816794,8.680041984732824,3.6445916030534353,0
18811,7.044880505371093,-0.6993879760742188,2.9055564453125,-3.5479007633587787,8.458667938931297,1.8735992366412213,0
18836,7.281906469726562,-0.6108025146484375,2.8911912353515623,-4.303625954198473,2.3288969465648854,-1.8363244274809158,0
18861,7.356126721191406,-0.5437648681640626,2.8600666137695314,-4.53263358778626,-5.793240458015267,-5.27143893129771,0
18886,7.360915124511718,-0.44799680175781253,2.86724921875,-4.334160305343512,-9.365759541984731,-6.691286259541985,0
18911,7.509355627441406,-0.44799680175781253,2.88640283203125,-3.7692748091603057,-8.92301145038168,-6.355408396946565,0
18936,7.38485714111328,-0.41447797851562496,2.761904345703125,-2.639503816793893,-7.526064885496183,-3.782889312977099,0
18961,7.447106384277343,-0.30913310546874995,2.8121825805664065,-2.1585877862595417,-4.58713358778626,-0.24853816793893124,0
18986,7.284300671386718,-0.481515625,2.630223254394531,-1.3799618320610687,-2.1138511450381676,3.5758893129770994,0
19011,7.140648571777343,-0.4863040283203125,2.644588464355469,-0.20438931297709928,0.7334770992366413,6.163675572519083,0
19036,7.028121093749999,-0.5413706665039062,2.646982666015625,1.039885496183206,4.687675572519084,7.598790076335877,0
19061,7.073610925292969,-0.61559091796875,2.7762695556640624,2.9024809160305343,8.42813358778626,6.743828244274809,0
19086,7.090370336914062,-0.5150344482421875,2.77148115234375,4.200190839694656,10.825080152671756,4.423217557251908,0
19111,7.262752856445311,-0.567706884765625,2.80978837890625,5.0475190839694655,9.641874045801528,1.530087786259542,0
19136,7.356126721191406,-0.5437648681640626,2.8792202270507814,6.223091603053435,7.000652671755725,-1.6912862595419846,0
19162,7.080793530273437,-0.6969937744140625,2.9989303100585936,6.2688931297709924,5.542637404580153,-2.0653320610687023,0
19187,6.9706602539062485,-0.8238864624023438,2.9390752685546877,4.787977099236641,7.603706106870229,0.3010801526717557,0
19212,7.1574079833984365,-0.7999444458007813,3.0085071166992186,1.6276717557251907,10.641874045801528,2.110240458015267,0
19237,7.301060083007811,-0.7736082275390624,3.128217199707031,-0.6547709923664123,6.069354961832062,2.461385496183206,0
19262,7.509355627441406,-0.5988315063476563,3.123428796386719,-3.9830152671755727,2.6266068702290077,1.1560419847328243,0
19287,7.612306298828124,-0.4863040283203125,3.0156897216796876,-6.357061068702291,-5.58713358778626,-0.7523549618320612,0
19312,7.435135375976562,-0.46475621337890627,2.9989303100585936,-7.265458015267176,-13.434461832061068,-0.9279274809160306,0
19337,7.114312353515625,-0.5437648681640626,2.9007680419921877,-7.998282442748092,-11.55659923664122,1.2018435114503816,0
19362,7.052063110351562,-0.5844662963867188,2.8049999755859374,-7.5173664122137405,-7.152019083969465,3.6522251908396948,0
19387,7.056851513671874,-0.5988315063476563,2.725991320800781,-4.37232824427481,-5.74743893129771,4.934667938931297,0
19412,6.922776220703125,-0.6682633544921875,2.725991320800781,-1.074618320610687,-2.8619427480916033,5.453751908396947,0
19437,6.848555969238281,-0.682628564453125,2.644588464355469,0.2612595419847328,2.1456908396946566,5.003370229007634,0
19462,7.004179077148437,-0.6586865478515624,2.587127624511719,2.230725190839695,1.1762251908396948,3.9346679389312977,0
19487,7.049668908691406,-0.5557358764648438,2.7283855224609375,3.6200381679389313,0.9624847328244276,2.2171106870229007,0
19512,7.186138403320311,-0.4767272216796875,2.8457014038085937,3.757442748091603,4.443400763358779,0.5224541984732824,0
19538,7.363309326171874,-0.4671504150390625,2.8983738403320314,4.589503816793893,2.8937824427480914,-1.698919847328244,0
19563,7.109523950195311,-0.4551794067382813,2.8337303955078124,4.894847328244275,-0.3352251908396946,-2.134034351145038,0
19588,6.795883532714844,-0.5988315063476563,2.8840086303710937,2.6963740458015266,4.298362595419848,0.43848473282442746,0
19613,6.86770958251953,-0.8143096557617188,2.8816144287109373,1.4673664122137404,9.336530534351144,1.6140572519083969,0
19638,7.016150085449218,-0.8334632690429687,2.761904345703125,2.4673664122137406,6.779278625954198,0.26291221374045803,0
19663,6.992208068847655,-0.9124719238281249,2.8792202270507814,2.5666030534351147,5.832713740458015,-2.1951030534351146,0
19688,7.198109411621092,-0.9124719238281249,2.8121825805664065,2.2154580152671755,3.0922557251908396,-4.805790076335878,0
19713,7.339367309570311,-0.8143096557617188,2.7762695556640624,1.123854961832061,-1.9917137404580152,-5.836324427480917,0
19738,7.46147159423828,-0.6802343627929688,2.9103448486328127,-1.9906488549618322,-5.793240458015267,-4.561515267175573,0
19763,7.533297644042968,-0.6395329345703125,2.9366810668945313,-4.013549618320611,-8.671103053435115,-2.530980916030534,0
19788,7.5165382324218735,-0.5844662963867188,2.92471005859375,-4.547900763358779,-8.358125954198472,-1.0042633587786258,0
19813,7.363309326171874,-0.5701010864257813,2.769086950683594,-3.051717557251908,-9.602400763358778,0.8354312977099236,0
19838,7.186138403320311,-0.6131967163085937,2.6996551025390625,-1.3341603053435116,-7.487896946564884,2.7132938931297708,0
19863,7.13586016845703,-0.6467155395507812,2.627829052734375,0.9635496183206107,-3.0604160305343506,3.7438282442748094,0
19888,7.181349999999999,-0.5078518432617187,2.7475391357421874,4.078053435114503,-1.129118320610687,3.9041335877862595,0
19913,7.166984790039062,-0.49827503662109374,2.8026057739257815,6.96354961832061,1.6418740458015268,3.163675572519084,0
19939,7.155013781738281,-0.49348663330078124,2.9055564453125,8.574236641221374,5.382332061068702,2.7667290076335878,0
19964,7.131071765136718,-0.510246044921875,3.0132955200195313,8.047519083969465,7.145690839694657,2.9270343511450383,0
19989,7.119100756835937,-0.5701010864257813,3.109063586425781,6.3757633587786255,7.93958396946565,3.1255076335877865,0
20014,7.066428320312499,-0.6682633544921875,3.0348433349609376,3.6963740458015266,7.557904580152671,3.087339694656489,0
20039,6.920382019042967,-0.6658691528320313,2.9821708984375,1.4979007633587784,4.855614503816794,2.1713091603053436,0
20064,6.922776220703125,-0.8526168823242187,2.9031622436523437,0.12385496183206107,2.054087786259542,0.39268320610687024,0
20089,6.827008154296874,-0.8119154541015625,2.8935854370117187,-1.4715648854961834,-0.510797709923664,-0.93556106870229,0
20114,6.973054455566406,-0.8238864624023438,2.773875354003906,-4.0593511450381685,-0.22835496183206105,-2.6912862595419846,0
20139,7.243599243164062,-0.6802343627929688,2.7379623291015625,-4.578435114503817,-4.1291183206106865,-5.515713740458016,0
20164,7.4949904174804685,-0.5844662963867188,2.764298547363281,-3.0669847328244275,-9.037515267175571,-8.630217557251909,0
20189,7.58357587890625,-0.44320839843750004,2.8241535888671874,-1.1814885496183205,-11.136751908396946,-9.179835877862596,0
20214,7.487807812499999,-0.31392150878906244,2.9007680419921877,0.21545801526717556,-10.136751908396946,-5.821057251908397,0
20239,7.377674536132811,-0.3426519287109375,2.9007680419921877,1.2230916030534351,-4.671103053435115,-0.23327099236641236,0
20264,7.451894787597655,-0.3258925170898437,3.0348433349609376,2.1314885496183207,2.0006526717557254,5.3621488549618315,0
20289,7.370491931152343,-0.48390982666015625,3.030054931640625,2.574236641221374,4.191492366412214,8.56062213740458,0
20314,7.128677563476562,-0.5964373046875,2.9079506469726564,1.6734732824427483,4.565538167938931,9.72092748091603,0
20340,6.975448657226562,-0.7089647827148438,2.9366810668945313,0.1696564885496183,3.970118320610687,9.178942748091602,0
20365,6.769547314453125,-0.8885299072265624,2.9462578735351563,-0.7387404580152671,2.939583969465649,7.209477099236641,0
20390,6.747999499511718,-0.8789531005859375,2.9127390502929686,-1.6318702290076335,1.8785152671755725,4.209477099236641,0
20415,6.898834204101562,-0.8789531005859375,2.9462578735351563,-2.2501908396946564,1.2296603053435116,0.8735992366412213,0
20440,7.107129748535155,-0.65389814453125,2.8887970336914064,-1.6166030534351146,1.122790076335878,-2.60731679389313,0
20465,7.205292016601562,-0.5844662963867188,2.8600666137695314,-0.21202290076335883,0.49683587786259553,-5.240904580152672,0
20490,7.087976135253906,-0.586860498046875,2.8648550170898437,0.5513358778625954,2.3441641221374048,-5.60731679389313,0
20515,7.133465966796874,-0.548553271484375,2.9079506469726564,0.20019083969465645,5.718209923664123,-4.3172404580152675,0
20540,7.181349999999999,-0.567706884765625,2.8265477905273437,-0.28835877862595427,4.847980916030535,-2.7752557251908394,0
20565,6.989813867187499,-0.6898111694335938,2.9031622436523437,-1.4486641221374046,3.9472175572519084,-1.2790725190839694,0
20590,6.855738574218749,-0.8286748657226563,2.8241535888671874,-2.769274809160305,4.206759541984733,-0.469912213740458,0
20615,6.9515066406249995,-0.9172603271484374,2.7882405639648438,-4.616603053435115,4.305996183206107,-0.9126603053435115,0
20640,7.0616399169921875,-0.7640314208984375,2.702049304199219,-6.36469465648855,2.2907290076335878,-3.4622786259541987,0
20665,7.320213696289062,-0.6874169677734375,2.668530480957031,-6.357061068702291,-5.930645038167938,-7.553881679389313,0
20690,7.301060083007811,-0.65389814453125,2.682895690917969,-6.3952290076335885,-10.831408396946564,-9.614950381679389,0
20715,7.207686218261718,-0.5629184814453125,2.570368212890625,-6.0593511450381685,-11.434461832061068,-8.179835877862596,0
20740,7.260358654785155,-0.4671504150390625,2.682895690917969,-5.04408396946565,-6.09095038167939,-5.28670610687023,0
20766,7.50696142578125,-0.30434470214843745,2.635011657714844,-1.2120229007633587,-1.694003816793893,-4.057698473282443,0
20791,7.483019409179687,-0.38335335693359374,2.658953674316406,3.520801526717557,-2.129118320610687,-2.6760190839694658,0
20816,7.217263024902343,-0.43363159179687505,2.773875354003906,5.650572519083969,0.9777519083969466,0.35451526717557247,0
20841,7.186138403320311,-0.57728369140625,2.857672412109375,5.787977099236641,6.0922557251908405,3.751461832061069,0
20866,7.291483276367187,-0.548553271484375,2.9414694702148436,5.734541984732824,7.061721374045801,4.835431297709923,0
20891,7.327396301269531,-0.5988315063476563,2.9893535034179686,6.207824427480916,5.122790076335878,4.377416030534351,0
20916,7.143042773437499,-0.63474453125,3.171312829589844,4.856679389312977,5.122790076335878,3.3087137404580154,0
20941,7.226839831542969,-0.6945995727539063,3.2263794677734374,2.13912213740458,5.75637786259542,2.178942748091603,0
20966,7.166984790039062,-0.7736082275390624,3.183283837890625,-0.0364503816793893,3.206759541984733,1.1484083969465648,0
20991,6.977842858886718,-0.9005009155273438,3.133005603027344,-2.051717557251908,2.466301526717557,0.3163473282442748,0
21016,6.98263126220703,-0.9100777221679688,2.96301728515625,-4.357061068702291,1.9243167938931298,-0.6225839694656489,0
21041,6.9131994140624995,-0.9196545288085938,2.790634765625,-5.876145038167939,-1.07568320610687,-2.1035,0
21066,7.018544287109374,-0.8789531005859375,2.7379623291015625,-6.960114503816794,-1.2741564885496182,-3.6836526717557248,0
21091,7.198109411621092,-0.711358984375,2.716414514160156,-6.876145038167939,-3.9688129770992364,-5.706553435114504,0
21116,7.095158740234374,-0.5748894897460938,2.61825224609375,-6.990648854961832,-7.297057251908397,-5.576782442748092,0
21142,7.21247462158203,-0.48869822998046875,2.5248783813476563,-7.845610687022901,-5.457362595419847,-4.454645038167939,0
21167,7.272329663085936,-0.38335335693359374,2.606281237792969,-5.975381679389313,-8.045148854961832,-3.8286908396946564,0
21192,7.356126721191406,-0.29476789550781246,2.6134638427734376,-2.9677480916030534,-8.984080152671755,-3.43937786259542,0
21217,7.325002099609374,-0.3019505004882812,2.6421942626953125,0.41393129770992365,-6.426828244274809,-2.5004465648854963,0
21242,7.28908907470703,-0.19421142578124997,2.6613478759765625,3.7192748091603054,-2.6253015267175575,-0.8363244274809162,0
21267,7.475836804199218,-0.19181722412109373,2.8528840087890623,6.368129770992366,3.367064885496183,0.29344656488549614,0
21292,7.528509240722655,-0.21097083740234376,2.9462578735351563,8.329961832061068,5.1075229007633585,0.5148206106870228,0
21317,7.43034697265625,-0.3713823486328125,3.0132955200195313,8.482633587786259,3.519736641221374,1.6903931297709924,0
21342,7.109523950195311,-0.5246112548828125,3.0611795532226562,5.81087786259542,4.3136297709923666,3.911767175572519,0
21367,7.032909497070311,-0.7065705810546875,3.010901318359375,3.688740458015267,5.634240458015267,5.270545801526717,0
21392,6.886863195800781,-0.6323503295898437,3.0635737548828126,1.7803435114503818,6.26782824427481,5.453751908396947,0
21417,6.961083447265625,-0.6993879760742188,3.0324491333007813,0.0780534351145038,6.634240458015267,3.6903931297709924,0
21442,7.104735546874999,-0.6850227661132813,2.9749882934570313,-2.479198473282443,4.901416030534351,0.32398091603053436,0
21467,7.140648571777343,-0.63474453125,2.8265477905273437,-4.486832061068703,-0.846675572519084,-3.3477748091603057,0
21492,7.193321008300781,-0.6371387329101562,2.7379623291015625,-5.295992366412214,-5.625301526717557,-6.62258396946565,0
21518,7.265147058105469,-0.7257241943359375,2.6757130859375002,-5.357061068702291,-7.381026717557251,-7.958461832061069,0
21543,7.3824629394531245,-0.57728369140625,2.606281237792969,-4.471564885496184,-7.686370229007633,-7.4164770992366424,0
21568,7.573999072265624,-0.4671504150390625,2.5560030029296876,-2.807442748091603,-7.480263358778625,-5.11113358778626,0
21593,7.5524512573242175,-0.3929301635742187,2.6805014892578125,-0.7540076335877862,-6.869576335877863,-1.7828893129770993,0
21618,7.214868823242187,-0.3713823486328125,2.6757130859375002,0.03225190839694653,-4.556599236641221,3.583522900763359,0
21643,7.260358654785155,-0.3665939453125,2.587127624511719,-0.2654580152671756,1.2830954198473283,7.942301526717557,0
21668,7.279512268066406,-0.3163157104492187,2.57994501953125,1.5666030534351143,0.9395839694656489,8.018637404580153,0
21693,7.334578906249999,-0.38814176025390623,2.725991320800781,3.9559160305343513,0.7182099236641223,4.537721374045802,0
21718,7.310636889648436,-0.28997949218749997,2.7666927490234374,6.2688931297709924,-0.5413320610687022,0.46138549618320607,0
21743,7.128677563476562,-0.4671504150390625,2.800211572265625,7.681106870229007,-3.1672862595419846,-0.9966297709923665,0
21768,6.985025463867188,-0.5533416748046875,2.8409130004882814,6.261259541984733,1.6876755725190842,0.11787404580152672,0
21793,7.0616399169921875,-0.53897646484375,2.80978837890625,4.123854961832061,6.008286259541984,1.7361946564885495,0
21818,7.260358654785155,-0.4551794067382813,2.9199216552734377,2.6047709923664124,3.023553435114504,2.1560419847328243,0
21843,7.169378991699218,-0.5054576416015625,2.88640283203125,0.8185114503816794,0.6342404580152673,1.8201641221374045,0
21868,7.198109411621092,-0.44799680175781253,2.9606230834960936,-0.5555343511450382,-0.47262977099236636,1.0186374045801527,0
21894,7.1957152099609365,-0.5820720947265625,3.056391149902344,-0.8303435114503818,-2.006980916030534,0.7514618320610686,0
21919,7.138254370117187,-0.6802343627929688,2.9486520751953127,-2.525,1.122790076335878,0.8965,0
21944,6.94432403564453,-0.73051259765625,2.8361245971679687,-3.731106870229007,-1.3581259541984734,1.5835229007633589,0
21969,6.862921179199218,-0.80712705078125,2.773875354003906,-5.181488549618321,-0.8085076335877863,2.0262709923664124,0
21994,6.994602270507811,-0.816703857421875,2.7140203125,-4.662404580152672,0.34416412213740477,0.24001145038167937,0
22019,6.965871850585937,-0.76881982421875,2.5536088012695313,-2.883778625954198,-1.41156106870229,-2.0118969465648853,0
22044,6.855738574218749,-0.7329067993164062,2.625434851074219,-1.288358778625954,-1.464996183206107,-2.981362595419847,0
22069,6.807854541015625,-0.7951560424804688,2.608675439453125,-0.9982824427480915,2.206759541984733,-2.4241106870229006,0
22094,6.941929833984374,-0.7879734375,2.5224841796875,-0.2196564885496184,4.374698473282443,-2.134034351145038,0
22119,6.965871850585937,-0.701782177734375,2.658953674316406,1.2536259541984731,4.153324427480916,-2.7752557251908394,0
22144,7.229234033203125,-0.6012257080078125,2.716414514160156,1.9711832061068701,5.466301526717558,-4.813423664122138,0
22169,7.497384619140624,-0.2971620971679687,2.8049999755859374,2.4597328244274808,5.817446564885497,-7.508080152671756,0
22194,7.80623663330078,-0.1798462158203125,2.88640283203125,2.97118320610687,0.07698854961832069,-10.034797709923664,0
22219,7.822996044921875,-0.11041436767578125,2.9031622436523437,1.7192748091603054,-6.274156488549618,-9.401209923664123,0
22244,7.593152685546873,-0.1798462158203125,3.056391149902344,-1.578435114503817,-6.281790076335877,-4.447011450381679,0
22270,7.42316436767578,-0.3306809204101563,2.96301728515625,-4.128053435114504,-5.678736641221374,2.278179389312977,0
22295,7.34654991455078,-0.529399658203125,2.7858463623046874,-4.906679389312978,-2.045148854961832,7.316347328244275,0
22320,7.224445629882811,-0.4599678100585938,2.800211572265625,-4.433396946564886,-0.35812595419847315,7.850698473282442,0
22345,7.301060083007811,-0.510246044921875,2.8049999755859374,-4.212022900763359,-2.800874045801527,5.583522900763358,0
22370,7.260358654785155,-0.548553271484375,2.790634765625,-4.7234732824427486,-7.884843511450381,2.178942748091603,0
22395,7.23881083984375,-0.510246044921875,2.7140203125,-5.5097328244274815,-11.861942748091602,-0.04243129770992371,0
22420,7.140648571777343,-0.5341880615234375,2.5847334228515626,-5.555534351145038,-13.487896946564884,-0.6073167938931298,0
22445,7.028121093749999,-0.471938818359375,2.5272725830078127,-4.5173664122137405,-10.55659923664122,-0.034797709923664155,0
22470,7.116706555175781,-0.46475621337890627,2.340524853515625,-2.288358778625954,-5.381026717557251,0.8430648854961832,0
22495,7.207686218261718,-0.41926638183593745,2.3333422485351565,0.9559160305343511,-1.625301526717557,1.262912213740458,0
22520,7.226839831542969,-0.3713823486328125,2.4458697265625,3.7345419847328247,0.12279007633587802,2.39268320610687,0
22545,7.186138403320311,-0.376170751953125,2.35010166015625,4.780343511450381,3.3441641221374048,4.301080152671756,0
22570,7.05924571533203,-0.46236201171875,2.46502333984375,5.154389312977099,5.725843511450382,5.369782442748091,0
22595,7.0089674804687485,-0.5509474731445313,2.474600146484375,6.078053435114503,8.015919847328245,4.476652671755725,0
22620,6.891651599121093,-0.46236201171875,2.5560030029296876,6.833778625954198,9.825080152671756,1.6216908396946565,0
22646,6.894045800781249,-0.5270054565429687,2.649376867675781,7.154389312977099,9.397599236641222,-1.6149503816793893,0
22671,6.815037145996093,-0.6802343627929688,2.637405859375,6.261259541984733,8.962484732824427,-4.416477099236642,0
22696,7.1214949584960925,-0.65389814453125,2.627829052734375,4.948282442748091,7.183858778625954,-7.4241106870229014,0
22721,7.20050361328125,-0.6491097412109375,2.77148115234375,4.100954198473282,2.718209923664122,-9.889759541984732,0
22746,7.183744201660155,-0.5988315063476563,2.8217593872070315,2.6734732824427483,1.4357671755725192,-10.729454198473283,0
22771,7.3441557128906245,-0.5605242797851563,2.790634765625,0.17729007633587784,0.22966030534351156,-10.042431297709925,0
22796,7.341761511230469,-0.50066923828125,2.6014928344726562,-2.509732824427481,-1.793240458015267,-8.355408396946565,0
22821,7.394433947753906,-0.5988315063476563,2.57994501953125,-2.769274809160305,-3.0680496183206105,-7.576782442748092,0
22846,7.487807812499999,-0.5078518432617187,2.532060986328125,-0.5402671755725191,-2.4726297709923664,-7.660751908396946,0
22871,7.566816467285155,-0.40490117187499997,2.5368493896484376,2.5360687022900765,-1.5413320610687022,-7.828690839694657,0
22896,7.784688818359375,-0.29476789550781246,2.596704431152344,5.513167938931297,-1.1825534351145035,-6.920293893129771,0
22921,7.930735119628905,-0.15111579589843752,2.6900782958984375,7.7116412213740455,-1.892477099236641,-4.126400763358779,0
22946,7.9474945312499985,-0.08886655273437499,2.8816144287109373,7.7116412213740455,-0.7321717557251906,1.079706106870229,0
22971,7.868485876464843,0.023660925292968746,3.085121569824219,3.6963740458015266,9.847980916030535,7.545354961832061,0
22997,7.638642517089843,-0.1128085693359375,2.9007680419921877,4.719274809160305,4.771645038167939,12.171309160305343,0
23022,7.202897814941406,-0.13914478759765622,2.9294984619140627,4.3681297709923665,2.5960725190839695,13.942301526717557,0
23047,6.834190759277344,-0.15111579589843752,2.706837707519531,2.1314885496183207,4.664774809160305,13.369782442748091,0
23072,6.781518322753905,-0.20139403076171872,2.745144934082031,0.9788167938931297,5.015919847328244,10.171309160305343,0
23097,6.798277734375,-0.22054764404296875,2.61825224609375,1.8414122137404578,1.0922557251908398,4.7896297709923665,0
23122,6.6689908447265625,-0.2827968872070312,2.61825224609375,4.13912213740458,-2.297057251908397,-0.08823282442748093,0
23147,6.570828576660156,-0.4072953735351562,2.611069641113281,5.7116412213740455,0.5960725190839695,-2.7141870229007634,0
23172,6.692932861328125,-0.46475621337890627,2.6134638427734376,5.994083969465649,4.687675572519084,-3.1645687022900764,0
23197,6.889257397460937,-0.5629184814453125,2.7283855224609375,5.475,5.008286259541984,-3.0958664122137405,0
23222,7.035303698730467,-0.586860498046875,2.721202917480469,4.284160305343511,4.069354961832062,-4.332507633587786,0
23247,7.262752856445311,-0.4599678100585938,2.6805014892578125,3.558969465648855,-0.2817900763358778,-6.3172404580152675,0
23272,7.588364282226562,-0.37856495361328124,2.88640283203125,3.497900763358779,-3.9306450381679388,-7.9660954198473295,0
23297,7.61470050048828,-0.4456026000976563,2.8265477905273437,3.329961832061069,-6.312324427480917,-7.805790076335878,0
23322,7.650613525390624,-0.27082587890625,2.8600666137695314,2.726908396946565,-6.930645038167938,-4.798156488549619,0
23347,7.633854113769531,-0.17266361083984375,2.8624608154296873,2.3452290076335878,-4.953545801526717,-0.11876717557251915,0
23373,7.62188310546875,-0.014646301269531259,2.9869593017578127,2.177290076335878,-1.9306450381679388,3.9575687022900765,0
23398,7.571604870605468,-0.038588317871093764,2.9414694702148436,2.3604961832061067,-0.9535458015267175,6.766729007633588,0
23423,7.377674536132811,-0.10083756103515626,2.9199216552734377,1.9177480916030536,-1.8161412213740458,8.629324427480917,0
23448,7.267541259765625,-0.18224041748046874,2.953440478515625,0.05515267175572519,-0.510797709923664,8.827797709923665,0
23473,7.2316282348632805,-0.222941845703125,2.9893535034179686,-1.6013358778625952,-1.3657595419847328,7.865965648854962,0
23498,7.186138403320311,-0.20857663574218752,2.9390752685546877,-2.3952290076335876,-5.014614503816794,6.209477099236641,0
23523,6.963477648925781,-0.30913310546874995,2.8816144287109373,-3.1967557251908394,-5.251255725190839,4.957568702290076,0
23548,6.79109512939453,-0.3019505004882812,2.7954231689453124,-4.227290076335878,-1.3275916030534352,4.667492366412214,0
23573,6.716874877929686,-0.24927806396484373,2.742750732421875,-4.303625954198473,2.5426374045801525,3.698026717557252,0
23598,6.831796557617186,-0.3019505004882812,2.8624608154296873,-2.9830152671755723,3.725843511450382,1.0644389312977098,0
23623,6.815037145996093,-0.38335335693359374,2.7092319091796875,-0.9143129770992368,3.008286259541985,-2.3630419847328246,0
23648,6.774335717773437,-0.45278520507812503,2.6421942626953125,0.11622137404580152,4.168591603053436,-5.0958664122137405,0
23673,7.035303698730467,-0.5198228515625,2.635011657714844,0.742175572519084,4.496835877862596,-7.4164770992366424,0
23698,7.0831877319335925,-0.46475621337890627,2.57994501953125,0.6276717557251908,1.8403473282442748,-8.027164122137405,0
23723,7.183744201660155,-0.5820720947265625,2.678107287597656,-1.1204198473282445,2.3823320610687024,-7.370675572519085,0
23749,7.5907584838867175,-0.3905359619140625,2.627829052734375,-2.2654580152671753,0.9319503816793895,-6.714187022900764,0
23774,7.7391989868164055,-0.2564606689453125,2.6709246826171875,-2.6547709923664122,-4.3504923664122135,-6.683652671755725,0
23799,7.693709155273436,-0.1032317626953125,2.711626110839844,-3.4181297709923664,-6.831408396946564,-5.408843511450382,0
23824,7.751169995117187,-0.12956798095703123,2.759510144042969,-3.731106870229007,-5.526064885496183,-3.057698473282443,0
23849,7.629065710449217,-0.06971293945312501,2.6230406494140626,-2.86087786259542,-6.411561068702291,0.13314122137404572,0
23874,7.466259997558592,-0.06971293945312501,2.668530480957031,-1.9372137404580152,-2.877209923664122,3.1026068702290077,0
23899,7.356126721191406,-0.17745201416015624,2.706837707519531,-0.4257633587786259,0.5808053435114505,5.301080152671755,0
23924,7.317819494628906,-0.26364327392578124,2.611069641113281,0.5360687022900763,2.4052328244274808,5.507187022900763,0
23949,7.236416638183592,-0.4072953735351562,2.625434851074219,0.841412213740458,1.5808053435114504,5.033904580152671,0
23974,7.0089674804687485,-0.5437648681640626,2.723597119140625,-0.4257633587786259,1.6342404580152672,4.820164122137404,0
23999,7.02093848876953,-0.6036199096679687,2.69486669921875,-2.4181297709923664,1.504469465648855,4.140774809160305,0
24024,6.94432403564453,-0.5988315063476563,2.73317392578125,-3.7769083969465647,-1.7627061068702288,2.865965648854962,0
24049,6.850950170898437,-0.5964373046875,2.5440319946289063,-5.2883587786259545,-2.0909503816793893,1.9194007633587784,0
24074,6.965871850585937,-0.5317938598632812,2.5344551879882813,-6.2883587786259545,-1.846675572519084,0.018637404580152617,0
24099,7.1214949584960925,-0.2756142822265625,2.596704431152344,-5.990648854961832,-1.625301526717557,-3.332507633587786,0
24125,7.413587561035155,-0.12956798095703123,2.654165270996094,-4.578435114503817,-2.694003816793893,-7.477545801526718,0
24150,7.573999072265624,0.00450731201171875,2.5919160278320312,-1.7311068702290076,-4.205454198473282,-11.164568702290076,0
24175,7.58357587890625,0.06675655517578125,2.567974011230469,1.1162213740458014,-4.923011450381679,-11.26380534351145,0
24200,7.298665881347655,-0.23970125732421874,2.5272725830078127,2.894847328244275,-2.770339694656488,-6.28670610687023,0
24225,6.937141430664062,-0.3618055419921875,2.4147451049804687,2.925381679389313,4.802179389312977,1.6522251908396948,0
24250,7.087976135253906,-0.45278520507812503,2.5296667846679686,2.162022900763359,14.535003816793894,6.9041335877862595,0
24275,7.372886132812499,-0.44799680175781253,2.5536088012695313,2.4520992366412213,14.863248091603054,7.064438931297709,0
24300,7.588364282226562,-0.40011276855468747,2.692472497558594,1.490267175572519,8.687675572519083,3.178942748091603,0
24325,7.638642517089843,-0.376170751953125,2.7523275390625,-0.5020992366412214,-0.5413320610687022,-0.9660954198473283,0
24351,7.564422265624999,-0.3402577270507813,2.895979638671875,-4.112786259541985,-6.556599236641221,-3.1569351145038165,0
24376,7.411193359374999,-0.33307512207031253,2.654165270996094,-6.295992366412214,-9.541332061068701,-2.6912862595419846,0
24401,7.243599243164062,-0.32828671875000004,2.5751566162109376,-5.998282442748092,-9.22835496183206,-0.889759541984733,0
24426,6.920382019042967,-0.4456026000976563,2.532060986328125,-3.837977099236641,-3.1672862595419846,1.5377213740458013,0
24451,6.965871850585937,-0.4312373901367188,2.3692552734375,-1.3799618320610687,3.519736641221374,3.911767175572519,0
24476,6.999390673828125,-0.3905359619140625,2.3333422485351565,0.4215648854961832,7.817446564885497,4.3545152671755725,0
24501,7.080793530273437,-0.3426519287109375,2.4123509033203128,2.2841603053435113,7.290729007633589,2.743828244274809,0
24526,7.219657226562499,-0.29955629882812496,2.46502333984375,2.948282442748092,5.298362595419848,0.30871374045801525,0
24551,7.425558569335936,-0.3067389038085937,2.639800061035156,2.261259541984733,3.443400763358779,-2.1645687022900764,0
24576,7.542874450683592,-0.20139403076171872,2.61825224609375,0.9940839694656488,-1.4955305343511451,-3.7065534351145035,0
24601,7.399222351074218,-0.15829840087890626,2.706837707519531,-0.3188931297709924,-4.831408396946564,-3.5844160305343507,0
24626,7.404010754394531,-0.19899982910156247,2.5919160278320312,-1.128053435114504,-3.3046908396946564,-1.7141870229007634,0
24651,7.432741174316406,-0.2780084838867187,2.6517710693359375,0.6124045801526717,-2.0985839694656487,0.2018435114503816,0
24677,7.236416638183592,-0.4456026000976563,2.5919160278320312,2.856679389312977,-0.14438549618320606,2.3850496183206107,0
24702,7.05924571533203,-0.4168721801757812,2.723597119140625,3.658206106870229,4.389965648854962,4.40031679389313,0
24727,7.128677563476562,-0.3977185668945312,2.8217593872070315,4.497900763358778,5.061721374045802,4.942301526717557,0
24752,7.011361682128906,-0.4958808349609375,2.773875354003906,4.528435114503816,3.825080152671756,3.9041335877862595,0
