t_ms,ax,ay,az,gx,gy,gz,label
0,-11.838187988281248,-2.1454857788085935,0.5927576416015624,0.06278625954198469,0.11515648854961835,-0.05769847328244282,0
25,-11.804669165039062,-2.16703359375,0.520931591796875,-0.028816793893129744,0.0922557251908398,-0.19510305343511447,0
50,-11.79988076171875,-2.1837930053710934,0.6238822631835936,0.0017175572519083637,-0.34285877862595404,-0.1569351145038168,0
75,-11.742419921875001,-2.1742161987304685,0.6214880615234374,0.15438931297709924,-0.28942366412213727,-0.05769847328244282,0
100,-11.792698156738282,-2.1742161987304685,0.5736040283203124,-0.01354961832061069,0.0006526717557253647,-0.11113358778625948,0
125,-11.790303955078123,-2.181398803710937,0.5305083984375,0.11622137404580152,-0.1062175572519084,-0.11113358778625948,0
150,-11.759179333496093,-2.1885814086914057,0.5017779785156249,0.024618320610687028,-0.3199580152671755,-0.2561717557251909,0
175,-11.740025720214842,-2.14787998046875,0.5640272216796874,0.13912213740458013,-0.006980916030534301,-0.019530534351145046,0
200,-11.823822778320313,-2.1502741821289058,0.5376910034179687,0.09332061068702285,0.1762251908396948,-0.06533206106870237,0
225,-11.840582189941404,-2.238859643554687,0.520931591796875,-0.005916030534351191,0.2525610687022901,-0.034797709923664155,0
250,-11.773544543457032,-2.2149176269531248,0.5664214233398437,-0.1356870229007634,0.4663015267175573,-0.20273664122137414,0
275,-11.807063366699218,-2.123937963867187,0.5736040283203124,-0.18148854961832062,0.3670648854961833,-0.004263358778625936,0
300,-11.809457568359374,-2.1550625854492185,0.49459537353515615,-0.0364503816793893,0.6647748091603054,-0.13403435114503826,0
325,-11.79988076171875,-2.171821997070312,0.4874127685546874,-0.1662213740458015,0.5273702290076336,-0.10350000000000004,0
350,-11.725660510253906,-2.157456787109375,0.5281141967773437,-0.1662213740458015,0.29836259541984744,-0.21037022900763358,0
375,-11.75439093017578,-2.162245190429687,0.6023344482421874,-0.0364503816793893,0.237293893129771,-0.10350000000000004,0
400,-11.749602526855469,-2.1550625854492185,0.4922011718749999,0.016984732824427473,0.4815687022900764,-0.10350000000000004,0
425,-11.747208325195313,-2.162245190429687,0.5376910034179687,-0.005916030534351191,0.32889694656488566,-0.13403435114503826,0
451,-11.751996728515625,-2.121543762207031,0.5783924316406249,0.03988549618320608,0.3365305343511451,-0.24853816793893124,0
476,-11.763967736816404,-2.1742161987304685,0.5424794067382812,-0.05171755725190841,0.15332442748091624,-0.2409045801526718,0
501,-11.807063366699218,-2.133514770507812,0.4658649536132812,-0.005916030534351191,-0.1367519083969464,-0.2409045801526718,0
526,-11.833399584960937,-2.16703359375,0.5257199951171875,0.06278625954198469,0.09988931297709924,-0.20273664122137414,0
551,-11.785515551757811,-2.119149560546875,0.5448736083984375,0.08568702290076335,-0.03751526717557252,-0.05769847328244282,0
576,-11.847764794921876,-2.1933698120117184,0.5281141967773437,-0.04408396946564885,-0.15965267175572517,-0.14930152671755736,0
601,-11.766361938476564,-2.1406973754882808,0.5903634399414062,0.08568702290076335,-0.19018702290076317,-0.1264007633587786,0
626,-11.809457568359374,-2.1933698120117184,0.5257199951171875,0.10858778625954196,-0.03751526717557252,-0.16456870229007647,0
651,-11.778332946777343,-2.1790046020507807,0.5257199951171875,0.03988549618320608,-0.12148473282442729,-0.21800381679389325,0
676,-11.778332946777343,-2.1742161987304685,0.5520562133789062,-0.05935114503816796,-0.029881679389312854,-0.13403435114503826,0
701,-11.792698156738282,-2.190975610351562,0.6190938598632811,0.024618320610687028,0.29836259541984744,-0.034797709923664155,0
726,-11.840582189941404,-2.190975610351562,0.6430358764648437,-0.12041984732824429,0.11515648854961835,-0.11876717557251915,0
751,-11.807063366699218,-2.14787998046875,0.6047286499023437,0.10095419847328241,0.34416412213740477,-0.09586641221374048,0
776,-11.778332946777343,-2.1311205688476558,0.6023344482421874,0.047519083969465636,0.3517977099236642,-0.24853816793893124,0
801,-11.795092358398438,-2.200552416992187,0.5352968017578125,-0.0364503816793893,0.2907290076335878,-0.04243129770992371,0
826,-11.816640173339842,-2.1454857788085935,0.5017779785156249,-0.18148854961832062,0.38233206106870243,-0.1264007633587786,0
851,-11.816640173339842,-2.217311828613281,0.5568446166992187,-0.005916030534351191,0.5121030534351146,-0.05769847328244282,0
877,-11.75439093017578,-2.143091577148437,0.6071228515624999,-0.21202290076335883,0.405232824427481,-0.07296564885496182,0
902,-11.804669165039062,-2.1933698120117184,0.6047286499023437,-0.05171755725190841,0.4205000000000001,-0.13403435114503826,0
927,-11.823822778320313,-2.2125234252929684,0.5903634399414062,0.13912213740458013,0.3365305343511451,-0.04243129770992371,0
952,-11.737631518554686,-2.210129223632812,0.6310648681640625,-0.021183206106870245,0.4815687022900764,-0.13403435114503826,0
977,-11.807063366699218,-2.198158215332031,0.4922011718749999,-0.12805343511450384,0.13042366412213746,-0.09586641221374048,0
1002,-11.809457568359374,-2.121543762207031,0.6262764648437499,-0.09751908396946563,0.0922557251908398,-0.21800381679389325,0
1027,-11.73523731689453,-2.162245190429687,0.5951518432617187,0.11622137404580152,0.19912595419847334,0.0033702290076335073,0
1052,-11.742419921875001,-2.190975610351562,0.5161431884765625,0.07041984732824424,0.008286259541984808,-0.24853816793893124,0
1077,-11.773544543457032,-2.152668383789062,0.5017779785156249,-0.01354961832061069,0.015919847328244474,-0.1264007633587786,0
1102,-11.804669165039062,-2.181398803710937,0.42995192871093746,-0.0364503816793893,0.13042366412213746,-0.16456870229007647,0
1127,-11.744814123535157,-2.1742161987304685,0.559238818359375,0.13912213740458013,-0.03751526717557252,-0.17983587786259536,0
1152,-11.787909753417967,-2.2029466186523434,0.5233257934570312,-0.11278625954198473,-0.07568320610687018,-0.09586641221374048,0
1177,-11.807063366699218,-2.114361157226562,0.5664214233398437,0.03988549618320608,0.06935496183206125,-0.27143893129771,0
1202,-11.7807271484375,-2.2029466186523434,0.6095170532226561,-0.05935114503816796,0.07698854961832069,0.0033702290076335073,0
1227,-11.749602526855469,-2.1287263671875,0.5879692382812499,-0.17385496183206106,0.22966030534351156,-0.10350000000000004,0
1252,-11.79988076171875,-2.1837930053710934,0.17856075439453123,2.5666030534351147,-12.258889312977098,0.2018435114503816,0
1277,-11.737631518554686,-2.3274451049804683,0.1713781494140625,10.116221374045802,-38.014614503816794,0.9346679389312976,0
1303,-11.555672192382811,-2.2029466186523434,0.6047286499023437,14.49026717557252,-60.327591603053435,1.461385496183206,0
1328,-11.64665185546875,-2.095207543945312,1.2487688964843748,16.123854961832063,-67.88484351145038,1.530087786259542,0
1353,-11.728054711914062,-2.066477124023437,1.864078723144531,14.261259541984732,-53.28942366412214,1.9194007633587784,0
1378,-11.572431604003906,-2.1287263671875,2.0651916625976563,7.719274809160305,-33.60240076335878,0.6522251908396947,0
1403,-11.728054711914062,-2.056900317382812,2.0771626708984376,1.475,-7.289423664122136,0.33924809160305336,0
1428,-11.598767822265625,-2.092813342285156,2.156171325683594,-4.242557251908397,17.145690839694655,-0.9050267175572518,0
1453,-11.6274982421875,-1.9635264526367189,1.9790004028320312,-10.18148854961832,39.618973282442745,-1.4241106870229006,0
1478,-11.850158996582032,-2.143091577148437,1.62226435546875,-13.036450381679389,53.97011832061068,-1.7981564885496182,0
1503,-11.744814123535157,-2.1359089721679685,1.1841254516601563,-14.074618320610687,56.08462213740458,-1.653118320610687,0
1528,-11.699324291992188,-2.1502741821289058,0.8824560424804687,-13.395229007633588,54.3441641221374,-1.7447213740458016,0
1553,-11.790303955078123,-2.181398803710937,0.4922011718749999,-11.906679389312977,48.672408396946565,-1.5462480916030534,0
1578,-11.756785131835937,-2.102390148925781,0.26475201416015626,-9.433396946564885,39.83271374045801,-1.3630419847328246,0
1603,-11.706506896972655,-2.2125234252929684,0.03490865478515624,-5.242557251908397,20.794545801526716,-0.6760190839694656,0
1628,-11.732843115234374,-2.1311205688476558,0.07321588134765625,-0.35706106870229015,3.92431679389313,-0.17220229007633592,0
1653,-11.761573535156248,-2.176610400390625,0.032514453124999995,3.856679389312977,-15.335225190839694,0.2858129770992366,0
1678,-11.852553198242187,-2.190975610351562,0.14025352783203124,8.207824427480917,-32.5795,0.7514618320610686,0
1703,-11.773544543457032,-2.143091577148437,0.6717662963867187,9.039885496183206,-36.09095038167939,0.9270343511450382,0
1729,-11.72326630859375,-2.1598509887695307,0.8752734375,8.704007633587786,-35.09095038167939,0.8201641221374045,0
1754,-11.756785131835937,-2.1598509887695307,0.9303400756835937,7.024618320610687,-28.617667938931298,0.6064236641221374,0
1779,-11.862130004882811,-2.10957275390625,1.1290588134765625,5.520801526717557,-21.61003435114504,0.5606221374045801,0
1804,-11.72326630859375,-2.102390148925781,1.2224326782226562,3.2459923664122137,-14.258889312977098,0.2858129770992366,0
1829,-11.706506896972655,-2.195764013671875,1.2248268798828124,2.0475190839694655,-7.945912213740458,0.11024045801526716,0
1854,-11.771150341796876,-2.1359089721679685,1.3086239379882811,0.5818702290076335,-1.7550725190839693,0.14077480916030527,0
1879,-11.725660510253906,-2.1933698120117184,1.306229736328125,-1.2196564885496182,4.634240458015267,-0.34777480916030534,0
1904,-11.756785131835937,-2.1263321655273435,1.155395031738281,-2.4486641221374046,10.389965648854963,-0.44701145038167944,0
1929,-11.790303955078123,-2.119149560546875,1.1937022583007812,-3.6853053435114504,14.626606870229008,-0.5157137404580153,0
1954,-11.763967736816404,-2.121543762207031,1.155395031738281,-4.448664122137405,19.000652671755727,-0.7676221374045803,0
1979,-11.802274963378906,-2.236465441894531,1.0213197387695312,-5.555534351145038,22.07698854961832,-0.7447213740458015,0
2004,-11.728054711914062,-2.104784350585937,0.8465430175781249,-6.166221374045802,24.283095419847328,-0.7828893129770992,0
2029,-11.763967736816404,-2.133514770507812,0.6933141113281249,-5.69293893129771,23.43576717557252,-0.8210572519083971,0
2054,-11.809457568359374,-2.143091577148437,0.43952873535156245,-4.6242366412213745,19.252561068702292,-0.6531183206106871,0
2079,-11.778332946777343,-2.1933698120117184,0.49459537353515615,-3.2959923664122135,13.954851145038168,-0.6073167938931298,0
2104,-11.766361938476564,-2.198158215332031,0.2384157958984375,-1.1814885496183205,5.061721374045802,-0.4164770992366412,0
2129,-11.766361938476564,-2.119149560546875,0.3126360473632812,1.475,-5.923011450381679,0.018637404580152617,0
2154,-11.828611181640625,-2.1742161987304685,0.42995192871093746,3.039885496183206,-12.136751908396946,0.22474427480916026,0
2180,-11.75439093017578,-2.181398803710937,0.5807866333007812,4.055152671755725,-15.709270992366413,0.33924809160305336,0
2205,-11.756785131835937,-2.1885814086914057,0.6382474731445312,4.704007633587786,-18.190187022900762,0.3163473282442748,0
2230,-11.751996728515625,-2.090419140625,0.8369662109374999,4.192557251908397,-17.533698473282442,0.16367557251908393,0
2255,-11.792698156738282,-2.085630737304687,0.9135806640624999,3.192557251908397,-12.724538167938931,0.2552786259541985,0
2280,-11.809457568359374,-2.133514770507812,0.9854067138671874,1.6124045801526719,-6.755072519083969,-0.050064885496183265,0
2305,-11.76875614013672,-2.1598509887695307,1.0644153686523437,0.28416030534351144,-0.6176679389312976,-0.10350000000000004,0
2330,-11.744814123535157,-2.14787998046875,0.9854067138671874,-1.0822519083969464,4.91668320610687,-0.29433969465648857,0
2355,-11.785515551757811,-2.162245190429687,0.8010531860351562,-2.3723282442748093,10.061721374045803,-0.2867061068702291,0
2380,-11.819034375000001,-2.162245190429687,0.8249952026367187,-3.639503816793893,14.298362595419848,-0.5157137404580153,0
2405,-11.785515551757811,-2.133514770507812,0.7100735229492187,-3.5479007633587787,14.977751908396947,-0.4546450381679389,0
2430,-11.711295300292967,-2.190975610351562,0.6310648681640625,-2.8532442748091604,12.11515648854962,-0.5615152671755727,0
2455,-11.744814123535157,-2.1287263671875,0.540085205078125,-1.9906488549618322,7.710576335877862,-0.385942748091603,0
2480,-11.783121350097655,-2.121543762207031,0.5448736083984375,-0.9677480916030535,3.535003816793893,-0.11876717557251915,0
2505,-11.766361938476564,-2.152668383789062,0.5520562133789062,0.291793893129771,-1.1672862595419846,-0.07296564885496182,0
2530,-11.773544543457032,-2.1167553588867185,0.5065663818359374,1.3452290076335878,-5.182553435114503,0.1713091603053435,0
2555,-11.751996728515625,-2.1311205688476558,0.5640272216796874,2.253625954198473,-8.59476717557252,-0.0271641221374046,0
2580,-11.747208325195313,-2.111966955566406,0.6909199096679687,3.024618320610687,-11.648202290076336,0.033904580152671726,0
2606,-11.795092358398438,-2.1933698120117184,0.7627459594726562,2.948282442748092,-11.289423664122136,0.3163473282442748,0
2631,-11.778332946777343,-2.1406973754882808,0.8561198242187499,2.085687022900763,-8.07568320610687,0.23237786259541982,0
2656,-11.732843115234374,-2.171821997070312,0.8202067993164062,1.0169847328244275,-3.6482022900763353,-0.1264007633587786,0
2681,-11.67777647705078,-2.219706030273437,0.9231574707031249,-0.32652671755725193,1.9777519083969466,-0.14930152671755736,0
2706,-11.883677819824218,-2.1646393920898435,0.8776676391601562,-1.7692748091603052,7.527370229007634,-0.20273664122137414,0
2731,-11.864524206542967,-2.099995947265625,0.8202067993164062,-2.0364503816793893,8.466301526717558,-0.30197328244274824,0
2756,-11.711295300292967,-2.157456787109375,0.6765546997070312,-2.1662213740458016,8.458667938931297,-0.385942748091603,0
2781,-11.766361938476564,-2.1406973754882808,0.66458369140625,-2.0669847328244275,7.90904961832061,-0.2409045801526718,0
2806,-11.785515551757811,-2.1263321655273435,0.5640272216796874,-0.891412213740458,4.336530534351145,-0.1416679389312977,0
2831,-11.795092358398438,-2.1790046020507807,0.5927576416015624,0.1696564885496183,-0.6940038167938929,-0.1416679389312977,0
2856,-11.787909753417967,-2.1885814086914057,0.540085205078125,0.9482824427480916,-3.8237748091603057,-0.019530534351145046,0
2881,-11.771150341796876,-2.162245190429687,0.5903634399414062,1.490267175572519,-5.831408396946564,-0.05769847328244282,0
2906,-11.716083703613283,-2.1694277954101557,0.6143054565429686,1.5818702290076336,-7.289423664122136,0.07207251908396939,0
2931,-11.773544543457032,-2.195764013671875,0.8441488159179686,1.6124045801526719,-6.73217175572519,0.07970610687022894,0
2956,-11.795092358398438,-2.1742161987304685,0.8992154541015625,0.9101145038167939,-3.2970572519083965,-0.0271641221374046,0
2981,-11.785515551757811,-2.14787998046875,0.8297836059570312,-0.21202290076335883,0.8021793893129772,-0.1264007633587786,0
3006,-11.756785131835937,-2.064082922363281,0.8369662109374999,-0.7998091603053435,3.0769885496183207,-0.21037022900763358,0
3031,-11.807063366699218,-2.1406973754882808,0.8513314208984374,-1.1891221374045804,4.817446564885497,-0.3096068702290077,0
3057,-11.81185177001953,-2.200552416992187,0.7388039428710936,-1.5860687022900763,5.93958396946565,-0.33250763358778623,0
3082,-11.67777647705078,-2.176610400390625,0.6166996582031249,-1.3036259541984734,5.206759541984733,-0.3248740458015268,0
3107,-11.778332946777343,-2.171821997070312,0.66458369140625,-0.7158396946564886,2.9624847328244277,-0.2867061068702291,0
3132,-11.730448913574218,-2.1790046020507807,0.6597952880859375,-0.1662213740458015,0.9090496183206108,-0.11113358778625948,0
3157,-11.795092358398438,-2.1311205688476558,0.6574010864257812,0.5131679389312976,-2.174919847328244,-0.06533206106870237,0
3182,-11.749602526855469,-2.176610400390625,0.6502184814453125,1.1696564885496183,-4.548965648854962,0.0033702290076335073,0
3207,-11.778332946777343,-2.200552416992187,0.7100735229492187,1.093320610687023,-5.07568320610687,-0.17220229007633592,0
3232,-11.720872106933594,-2.157456787109375,0.7818995727539062,0.8795801526717557,-3.892477099236641,-0.16456870229007647,0
3257,-11.76875614013672,-2.18618720703125,0.8417546142578124,0.5513358778625954,-1.9688129770992364,0.011003816793893062,0
3282,-11.783121350097655,-2.1359089721679685,0.8776676391601562,-0.24255725190839694,0.15332442748091624,0.02627099236641217,0
3307,-11.797486560058594,-2.198158215332031,0.9063980590820312,-0.5708015267175574,2.5960725190839695,-0.2256374045801527,0
3332,-11.79988076171875,-2.1550625854492185,0.7052851196289062,-1.2349236641221375,4.664774809160305,-0.23327099236641236,0
3357,-11.756785131835937,-2.18618720703125,0.7364097412109374,-1.2120229007633587,4.802179389312977,-0.27143893129771,0
3382,-11.744814123535157,-2.1359089721679685,0.7100735229492187,-0.8990458015267176,3.466301526717557,-0.30197328244274824,0
3407,-11.75439093017578,-2.162245190429687,0.5975460449218749,-0.4639312977099237,1.573171755725191,-0.1569351145038168,0
3432,-11.828611181640625,-2.1406973754882808,0.5688156249999999,0.13148854961832057,-0.47262977099236636,-0.10350000000000004,0
3457,-11.763967736816404,-2.1502741821289058,0.674160498046875,0.6429389312977098,-2.6405687022900763,0.033904580152671726,0
3483,-11.72326630859375,-2.200552416992187,0.7268329345703124,0.9864503816793893,-3.6176679389312976,0.04153816793893128,0
3508,-11.778332946777343,-2.1263321655273435,0.7076793212890624,0.940648854961832,-3.213087786259542,0.14840839694656482,0
3533,-11.816640173339842,-2.18618720703125,0.8154183959960937,0.4444656488549618,-1.8695763358778623,-0.20273664122137414,0
3558,-11.835793786621092,-2.162245190429687,0.7316213378906249,0.2536259541984732,-0.6329351145038169,-0.06533206106870237,0
3583,-11.790303955078123,-2.1790046020507807,0.7028909179687499,-0.27309160305343516,1.1991259541984733,-0.24853816793893124,0
3608,-11.842976391601564,-2.1790046020507807,0.8680908325195311,-0.5402671755725191,2.9853854961832065,-0.3248740458015268,0
3633,-11.7807271484375,-2.1502741821289058,0.7340155395507811,-0.8761450381679389,3.4205,-0.19510305343511447,0
3658,-11.809457568359374,-2.195764013671875,0.7052851196289062,-0.8150763358778627,3.2143931297709925,-0.27143893129771,0
3683,-11.804669165039062,-2.1646393920898435,0.66458369140625,-0.4639312977099237,2.153324427480916,-0.17220229007633592,0
3708,-11.73523731689453,-2.181398803710937,0.6574010864257812,-0.15858778625954195,0.6266068702290077,-0.10350000000000004,0
3733,-11.749602526855469,-2.1790046020507807,0.7268329345703124,0.37576335877862593,-1.41156106870229,-0.050064885496183265,0
3758,-11.821428576660157,-2.152668383789062,0.7292271362304686,0.558969465648855,-2.4344618320610687,-0.14930152671755736,0
3783,-11.847764794921876,-2.14787998046875,0.7244387329101561,0.8032442748091603,-2.900110687022901,-0.04243129770992371,0
3808,-11.7041126953125,-2.1550625854492185,0.7818995727539062,0.6200381679389313,-2.0222480916030534,-0.08059923664122137,0
3833,-11.67777647705078,-2.176610400390625,0.789082177734375,0.23072519083969464,-0.846675572519084,-0.11113358778625948,0
3858,-11.81185177001953,-2.1933698120117184,0.789082177734375,-0.005916030534351191,0.32889694656488566,-0.11876717557251915,0
3883,-11.775938745117188,-2.1885814086914057,0.8680908325195311,-0.40286259541984737,1.9090496183206107,-0.14930152671755736,0
3908,-11.79988076171875,-2.1406973754882808,0.7866879760742187,-0.7463740458015268,2.7487442748091606,-0.21037022900763358,0
3934,-11.807063366699218,-2.133514770507812,0.7364097412109374,-0.6853053435114503,2.9853854961832065,-0.4012099236641221,0
3959,-11.835793786621092,-2.152668383789062,0.7771111694335937,-0.5173664122137405,2.153324427480916,-0.26380534351145035,0
3984,-11.783121350097655,-2.0976017456054685,0.7364097412109374,-0.15858778625954195,0.8250801526717558,-0.11113358778625948,0
4009,-11.783121350097655,-2.18618720703125,0.6382474731445312,0.11622137404580152,-0.5260648854961831,-0.11113358778625948,0
4034,-11.814245971679686,-2.1263321655273435,0.7220445312499999,0.5360687022900763,-1.6558358778625952,-0.11876717557251915,0
4059,-11.816640173339842,-2.1406973754882808,0.7340155395507811,0.5131679389312976,-2.2130877862595417,-0.004263358778625936,0
4084,-11.73523731689453,-2.157456787109375,0.7028909179687499,0.3375954198473282,-2.0375152671755723,-0.06533206106870237,0
4109,-11.795092358398438,-2.1550625854492185,0.7818995727539062,0.2536259541984732,-1.2359885496183205,-0.05769847328244282,0
4134,-11.804669165039062,-2.152668383789062,0.8633024291992186,-0.15858778625954195,0.2907290076335878,-0.21800381679389325,0
4159,-11.792698156738282,-2.162245190429687,0.7340155395507811,-0.2196564885496184,1.3136297709923666,-0.3172404580152671,0
4184,-11.773544543457032,-2.152668383789062,0.8154183959960937,-0.44103053435114503,2.0693549618320612,-0.06533206106870237,0
4209,-11.775938745117188,-2.16703359375,0.7579575561523437,-0.5555343511450382,2.0922557251908396,-0.17983587786259536,0
4234,-11.771150341796876,-2.1790046020507807,0.7411981445312499,-0.4639312977099237,1.9853854961832063,-0.10350000000000004,0
4259,-11.747208325195313,-2.1694277954101557,0.7052851196289062,-0.18912213740458017,1.336530534351145,-0.21800381679389325,0
4284,-11.763967736816404,-2.114361157226562,0.7459865478515624,-0.14332061068702295,0.07698854961832069,-0.08059923664122137,0
4309,-11.763967736816404,-2.1311205688476558,0.7268329345703124,0.391030534351145,-1.1825534351145035,-0.20273664122137414,0
4335,-11.833399584960937,-2.133514770507812,0.7052851196289062,0.32996183206106866,-1.6024007633587787,0.0873396946564885,0
4360,-11.751996728515625,-2.083236535644531,0.6669778930664062,0.3604961832061069,-1.5031641221374046,-0.2256374045801527,0
4385,-11.75439093017578,-2.1263321655273435,0.7148619262695312,0.1925572519083969,-1.07568320610687,-0.21037022900763358,0
4410,-11.737631518554686,-2.171821997070312,0.769928564453125,0.047519083969465636,-0.12148473282442729,-0.07296564885496182,0
4435,-11.807063366699218,-2.1263321655273435,0.7028909179687499,-0.18912213740458017,0.7258435114503817,-0.06533206106870237,0
4460,-11.83100538330078,-2.114361157226562,0.7388039428710936,-0.40286259541984737,1.3441641221374048,-0.18746946564885503,0
4485,-11.809457568359374,-2.190975610351562,0.7124677246093749,-0.3799618320610687,1.870881679389313,-0.14930152671755736,0
4510,-11.809457568359374,-2.157456787109375,0.7723227661132812,-0.4639312977099237,2.038820610687023,-0.17983587786259536,0
4535,-11.81185177001953,-2.14787998046875,0.7411981445312499,-0.24255725190839694,0.9395839694656489,-0.07296564885496182,0
4560,-11.759179333496093,-2.1837930053710934,0.6957083129882812,0.16202290076335873,-0.19018702290076317,-0.07296564885496182,0
4585,-11.766361938476564,-2.1359089721679685,0.7148619262695312,0.08568702290076335,-0.6940038167938929,0.0033702290076335073,0
4610,-11.75439093017578,-2.16703359375,0.7938705810546874,0.15438931297709924,-0.961179389312977,-0.1416679389312977,0
4635,-11.756785131835937,-2.1598509887695307,0.7771111694335937,0.1925572519083969,-1.0909503816793893,-0.20273664122137414,0
4660,-11.759179333496093,-2.1885814086914057,0.7220445312499999,0.26889312977099233,-0.9382786259541982,-0.2409045801526718,0
4685,-11.761573535156248,-2.14787998046875,0.7340155395507811,0.0780534351145038,-0.3962938931297708,-0.06533206106870237,0
4710,-11.787909753417967,-2.200552416992187,0.7435923461914061,-0.08225190839694663,0.47393511450381687,-0.1569351145038168,0
4735,-11.814245971679686,-2.133514770507812,0.7651401611328125,-0.3799618320610687,1.0922557251908398,-0.19510305343511447,0
4761,-11.75439093017578,-2.2436480468749997,0.7603517578125,-0.32652671755725193,1.5426374045801527,-0.2561717557251909,0
4786,-11.766361938476564,-2.133514770507812,0.7148619262695312,-0.4257633587786259,1.4739351145038169,-0.19510305343511447,0
4811,-11.76875614013672,-2.1646393920898435,0.6478242797851562,-0.18912213740458017,0.954851145038168,0.0033702290076335073,0
4836,-11.795092358398438,-2.152668383789062,0.645430078125,-0.18148854961832062,0.2220267175572519,-0.1416679389312977,0
4861,-11.699324291992188,-2.176610400390625,0.7244387329101561,0.14675572519083968,-0.3657595419847328,-0.19510305343511447,0
4886,-11.756785131835937,-2.1502741821289058,0.6502184814453125,0.2612595419847328,-0.9077442748091604,-0.019530534351145046,0
4911,-11.718477905273438,-2.1550625854492185,0.7364097412109374,0.12385496183206107,-1.0909503816793893,-0.20273664122137414,0
4936,-11.785515551757811,-2.1550625854492185,0.7196503295898437,0.3223282442748091,-0.9230114503816793,-0.13403435114503826,0
4961,-11.76875614013672,-2.2125234252929684,0.7220445312499999,0.06278625954198469,-0.19782061068702284,-0.18746946564885503,0
4986,-11.763967736816404,-2.143091577148437,0.8226010009765624,-0.14332061068702295,0.321263358778626,-0.1264007633587786,0
5011,-11.797486560058594,-2.1598509887695307,0.7172561279296874,-0.19675572519083973,1.0006526717557254,-0.17220229007633592,0
5036,-11.790303955078123,-2.162245190429687,0.7771111694335937,-0.35706106870229015,1.038820610687023,-0.011896946564885491,0
5061,-11.79988076171875,-2.16703359375,0.8178125976562499,-0.2501908396946565,1.1151564885496184,-0.2256374045801527,0
5086,-11.771150341796876,-2.1311205688476558,0.7004967163085937,-0.3646946564885496,0.9090496183206108,-0.13403435114503826,0
5111,-11.804669165039062,-2.171821997070312,0.7052851196289062,0.024618320610687028,0.18385877862595423,-0.19510305343511447,0
5136,-11.778332946777343,-2.1694277954101557,0.7938705810546874,-0.021183206106870245,-0.14438549618320606,-0.07296564885496182,0
5162,-11.807063366699218,-2.1502741821289058,0.7220445312499999,0.11622137404580152,-0.3199580152671755,-0.004263358778625936,0
5187,-11.740025720214842,-2.1837930053710934,0.7579575561523437,0.12385496183206107,-0.7398053435114504,-0.08823282442748093,0
5212,-11.749602526855469,-2.18618720703125,0.7148619262695312,0.2612595419847328,-0.48789694656488547,-0.08823282442748093,0
5237,-11.823822778320313,-2.1550625854492185,0.7675343627929687,0.06278625954198469,-0.29705725190839694,-0.07296564885496182,0
5262,-11.756785131835937,-2.1287263671875,0.674160498046875,0.03988549618320608,0.29836259541984744,-0.13403435114503826,0
5287,-11.749602526855469,-2.217311828613281,0.6813431030273437,-0.10515267175572518,0.4510343511450383,-0.14930152671755736,0
5312,-11.795092358398438,-2.162245190429687,0.6765546997070312,-0.22729007633587783,0.6876755725190841,-0.13403435114503826,0
5337,-11.761573535156248,-2.1694277954101557,0.7723227661132812,-0.27309160305343516,0.9243167938931298,-0.09586641221374048,0
5362,-11.701718493652344,-2.171821997070312,0.7124677246093749,-0.12805343511450384,0.8632480916030535,-0.19510305343511447,0
5387,-11.778332946777343,-2.157456787109375,0.7268329345703124,-0.021183206106870245,0.2601946564885498,-0.16456870229007647,0
5412,-11.775938745117188,-2.181398803710937,0.6717662963867187,0.0017175572519083637,-0.06041603053435107,-0.13403435114503826,0
5437,-11.680170678710937,-2.1790046020507807,0.7172561279296874,0.12385496183206107,-0.25888931297709905,-0.17983587786259536,0
5462,-11.708901098632811,-2.162245190429687,0.7603517578125,0.14675572519083968,-0.32759160305343493,-0.14930152671755736,0
5487,-11.795092358398438,-2.1502741821289058,0.7603517578125,0.207824427480916,-0.28942366412213727,-0.17983587786259536,0
5512,-11.766361938476564,-2.1263321655273435,0.7316213378906249,0.03988549618320608,0.14569083969465657,-0.26380534351145035,0
5538,-11.747208325195313,-2.1287263671875,0.8154183959960937,-0.1509541984732825,0.2525610687022901,-0.2561717557251909,0
5563,-11.763967736816404,-2.181398803710937,0.7651401611328125,-0.08988549618320618,0.6647748091603054,-0.1569351145038168,0
5588,-11.744814123535157,-2.2221002319335934,0.7866879760742187,-0.12041984732824429,0.6495076335877864,-0.27143893129771,0
5613,-11.773544543457032,-2.226888635253906,0.7651401611328125,-0.10515267175572518,0.9166832061068704,-0.05769847328244282,0
5638,-11.850158996582032,-2.1454857788085935,0.6885257080078124,-0.14332061068702295,0.7258435114503817,-0.06533206106870237,0
5663,-11.783121350097655,-2.1742161987304685,0.7459865478515624,-0.01354961832061069,0.206759541984733,-0.1264007633587786,0
5688,-11.73523731689453,-2.1550625854492185,0.6957083129882812,0.024618320610687028,0.10752290076335891,-0.050064885496183265,0
5713,-11.802274963378906,-2.1454857788085935,0.7340155395507811,0.009351145038167918,-0.07568320610687018,-0.1264007633587786,0
5738,-11.795092358398438,-2.18618720703125,0.7938705810546874,0.08568702290076335,-0.3046908396946564,-0.1264007633587786,0
5763,-11.840582189941404,-2.1646393920898435,0.7292271362304686,0.09332061068702285,-0.02224809160305341,-0.24853816793893124,0
5788,-11.763967736816404,-2.16703359375,0.7364097412109374,-0.05935114503816796,-0.1062175572519084,-0.20273664122137414,0
5813,-11.790303955078123,-2.14787998046875,0.8154183959960937,0.009351145038167918,0.321263358778626,-0.2867061068702291,0
5838,-11.75439093017578,-2.190975610351562,0.7028909179687499,-0.18148854961832062,0.39759923664122154,-0.11876717557251915,0
5863,-11.804669165039062,-2.1694277954101557,0.6885257080078124,-0.021183206106870245,0.7487442748091604,-0.1264007633587786,0
5888,-11.778332946777343,-2.1790046020507807,0.7364097412109374,-0.08225190839694663,0.672408396946565,-0.26380534351145035,0
5913,-11.797486560058594,-2.111966955566406,0.7842937744140625,-0.028816793893129744,0.5197366412213742,-0.0271641221374046,0
5939,-11.775938745117188,-2.1359089721679685,0.789082177734375,0.07041984732824424,0.3670648854961833,-0.20273664122137414,0
5964,-11.840582189941404,-2.1885814086914057,0.6693720947265624,0.06278625954198469,0.05408778625954214,-0.050064885496183265,0
5989,-11.771150341796876,-2.2125234252929684,0.7172561279296874,-0.06698473282442752,0.04645419847328247,-0.17983587786259536,0
6014,-11.783121350097655,-2.181398803710937,0.6789489013671874,0.047519083969465636,-0.09095038167938929,-0.1569351145038168,0
6039,-11.795092358398438,-2.111966955566406,0.7364097412109374,-0.05171755725190841,-0.11385114503816784,-0.05769847328244282,0
6064,-11.7807271484375,-2.200552416992187,0.6885257080078124,-0.021183206106870245,-0.029881679389312854,0.049171755725190835,0
6089,-11.771150341796876,-2.14787998046875,0.8082357910156249,0.016984732824427473,0.28309541984732833,-0.26380534351145035,0
6114,-11.787909753417967,-2.143091577148437,0.8656966308593749,-0.021183206106870245,0.49683587786259553,-0.20273664122137414,0
6139,-11.795092358398438,-2.152668383789062,0.6526126831054687,-0.40286259541984737,0.5579045801526719,-0.21800381679389325,0
6164,-11.778332946777343,-2.111966955566406,0.645430078125,-0.08225190839694663,0.7182099236641223,-0.17983587786259536,0
6189,-11.864524206542967,-2.181398803710937,0.7316213378906249,-0.12041984732824429,0.5044694656488551,-0.1416679389312977,0
6214,-11.778332946777343,-2.14787998046875,0.7052851196289062,-0.05935114503816796,0.38233206106870243,-0.3172404580152671,0
6239,-11.76875614013672,-2.1263321655273435,0.7459865478515624,0.016984732824427473,0.22966030534351156,-0.07296564885496182,0
6264,-11.778332946777343,-2.229282836914062,0.7124677246093749,0.03988549618320608,0.015919847328244474,0.033904580152671726,0
6289,-11.838187988281248,-2.157456787109375,0.6885257080078124,0.13148854961832057,-0.06041603053435107,-0.3172404580152671,0
6314,-11.744814123535157,-2.1502741821289058,0.7268329345703124,0.207824427480916,-0.029881679389312854,-0.1416679389312977,0
6340,-11.83100538330078,-2.143091577148437,0.7507749511718749,-0.06698473282442752,-0.09858396946564874,-0.13403435114503826,0
6365,-11.7807271484375,-2.1287263671875,0.7052851196289062,0.07041984732824424,0.35943129770992366,-0.11113358778625948,0
6390,-11.795092358398438,-2.2149176269531248,0.7411981445312499,-0.05171755725190841,0.2678282442748092,-0.20273664122137414,0
6415,-11.792698156738282,-2.1359089721679685,0.7435923461914061,-0.06698473282442752,0.4815687022900764,-0.14930152671755736,0
6440,-11.75439093017578,-2.1790046020507807,0.7124677246093749,0.024618320610687028,0.405232824427481,-0.16456870229007647,0
6465,-11.773544543457032,-2.119149560546875,0.7675343627929687,0.0780534351145038,0.32889694656488566,0.02627099236641217,0
6490,-11.744814123535157,-2.133514770507812,0.8034473876953124,0.05515267175572519,0.31362977099236655,-0.17220229007633592,0
6515,-11.797486560058594,-2.226888635253906,0.7531691528320312,0.17729007633587784,0.0922557251908398,-0.10350000000000004,0
6540,-11.756785131835937,-2.104784350585937,0.7244387329101561,0.06278625954198469,0.008286259541984808,-0.034797709923664155,0
6565,-11.883677819824218,-2.1311205688476558,0.7244387329101561,-0.08225190839694663,0.13042366412213746,0.0033702290076335073,0
6590,-11.835793786621092,-2.1694277954101557,0.6693720947265624,-0.0364503816793893,0.15332442748091624,-0.11876717557251915,0
6615,-11.773544543457032,-2.138303173828125,0.8321778076171874,-0.08225190839694663,0.2525610687022901,-0.05769847328244282,0
6640,-11.81185177001953,-2.123937963867187,0.674160498046875,-0.06698473282442752,0.29836259541984744,-0.10350000000000004,0
6665,-11.771150341796876,-2.2125234252929684,0.6574010864257812,0.10095419847328241,0.3670648854961833,-0.06533206106870237,0
6690,-11.76875614013672,-2.1837930053710934,0.6310648681640625,-0.08225190839694663,0.2754618320610689,-0.1416679389312977,0
6716,-11.775938745117188,-2.162245190429687,0.7866879760742187,-0.12805343511450384,0.5121030534351146,-0.2561717557251909,0
6741,-11.795092358398438,-2.1837930053710934,0.6597952880859375,-0.08225190839694663,0.22966030534351156,-0.09586641221374048,0
6766,-11.718477905273438,-2.123937963867187,0.7244387329101561,0.13148854961832057,0.0922557251908398,-0.23327099236641236,0
6791,-11.744814123535157,-2.121543762207031,0.7531691528320312,-0.06698473282442752,0.18385877862595423,-0.19510305343511447,0
6816,-11.740025720214842,-2.1694277954101557,0.7603517578125,-0.07461832061068707,0.41286641221374065,-0.2256374045801527,0
6841,-11.807063366699218,-2.229282836914062,0.7052851196289062,-0.10515267175572518,0.489202290076336,-0.1416679389312977,0
6866,-11.740025720214842,-2.152668383789062,0.7675343627929687,0.0017175572519083637,0.008286259541984808,-0.13403435114503826,0
6891,-11.708901098632811,-2.18618720703125,0.7603517578125,-0.005916030534351191,-0.04514885496183196,-0.08823282442748093,0
6916,-11.802274963378906,-2.14787998046875,0.77950537109375,0.07041984732824424,0.16859160305343512,-0.1416679389312977,0
6941,-11.747208325195313,-2.123937963867187,0.7579575561523437,-0.08225190839694663,0.37469847328244277,-0.11876717557251915,0
6966,-11.766361938476564,-2.121543762207031,0.7723227661132812,-0.0364503816793893,0.405232824427481,-0.17983587786259536,0
6991,-11.751996728515625,-2.1406973754882808,0.7100735229492187,-0.18912213740458017,0.2601946564885498,-0.10350000000000004,0
7016,-11.790303955078123,-2.138303173828125,0.7435923461914061,0.0017175572519083637,0.1762251908396948,-0.08059923664122137,0
7041,-11.76875614013672,-2.2412538452148434,0.7651401611328125,-0.0364503816793893,0.10752290076335891,0.07207251908396939,0
7066,-11.823822778320313,-2.16703359375,0.6813431030273437,0.03225190839694653,0.34416412213740477,-0.11876717557251915,0
7091,-11.740025720214842,-2.1694277954101557,0.7004967163085937,-0.08225190839694663,0.06172137404580158,-0.11876717557251915,0
7117,-11.761573535156248,-2.152668383789062,0.7579575561523437,0.0780534351145038,-0.1062175572519084,-0.18746946564885503,0
7142,-11.821428576660157,-2.1287263671875,0.7651401611328125,-0.04408396946564885,-0.1062175572519084,-0.10350000000000004,0
7167,-11.747208325195313,-2.1790046020507807,0.7555633544921875,0.03225190839694653,0.11515648854961835,-0.17220229007633592,0
7192,-11.797486560058594,-2.104784350585937,0.7627459594726562,-0.04408396946564885,0.8174465648854963,-0.04243129770992371,0
7217,-11.797486560058594,-2.1646393920898435,0.7292271362304686,-0.22729007633587783,0.4510343511450383,-0.08059923664122137,0
7242,-11.797486560058594,-2.1287263671875,0.7028909179687499,0.05515267175572519,0.2601946564885498,-0.05769847328244282,0
7267,-11.749602526855469,-2.1742161987304685,0.7292271362304686,-0.0364503816793893,0.05408778625954214,-0.21037022900763358,0
7292,-11.785515551757811,-2.104784350585937,0.7938705810546874,-0.028816793893129744,0.1914923664122139,-0.17220229007633592,0
7317,-11.821428576660157,-2.181398803710937,0.7268329345703124,0.03225190839694653,0.2525610687022901,-0.2256374045801527,0
7342,-11.785515551757811,-2.2340712402343748,0.77950537109375,0.13148854961832057,0.06172137404580158,-0.20273664122137414,0
7367,-11.76875614013672,-2.1790046020507807,0.6526126831054687,0.05515267175572519,0.14569083969465657,-0.004263358778625936,0
7392,-11.744814123535157,-2.18618720703125,0.7340155395507811,0.03225190839694653,0.06935496183206125,-0.07296564885496182,0
7417,-11.823822778320313,-2.162245190429687,0.7651401611328125,0.0017175572519083637,0.31362977099236655,-0.1569351145038168,0
7442,-11.835793786621092,-2.111966955566406,0.7052851196289062,-0.05935114503816796,0.206759541984733,-0.10350000000000004,0
7467,-11.761573535156248,-2.16703359375,0.7986589843749999,0.1696564885496183,0.206759541984733,-0.07296564885496182,0
7492,-11.783121350097655,-2.152668383789062,0.77950537109375,-0.15858778625954195,0.19912595419847334,-0.11876717557251915,0
7517,-11.795092358398438,-2.1550625854492185,0.7076793212890624,-0.18912213740458017,0.21439312977099245,-0.21037022900763358,0
7543,-11.790303955078123,-2.176610400390625,0.6765546997070312,0.009351145038167918,0.5121030534351146,-0.14930152671755736,0
7568,-11.79988076171875,-2.195764013671875,0.7172561279296874,-0.08988549618320618,0.1762251908396948,-0.08823282442748093,0
7593,-11.790303955078123,-2.200552416992187,0.6574010864257812,-0.05935114503816796,0.2601946564885498,-0.21800381679389325,0
7618,-11.792698156738282,-2.162245190429687,0.7388039428710936,-0.06698473282442752,0.38233206106870243,-0.21037022900763358,0
7643,-11.725660510253906,-2.1454857788085935,0.7388039428710936,0.07041984732824424,0.15332442748091624,-0.23327099236641236,0
7668,-11.775938745117188,-2.2244944335937498,0.7196503295898437,0.03225190839694653,0.29836259541984744,-0.20273664122137414,0
7693,-11.763967736816404,-2.198158215332031,0.7723227661132812,-0.028816793893129744,0.13042366412213746,-0.11876717557251915,0
7718,-11.756785131835937,-2.1742161987304685,0.7842937744140625,0.10858778625954196,-0.15965267175572517,-0.13403435114503826,0
7743,-11.744814123535157,-2.18618720703125,0.6861315063476562,-0.021183206106870245,0.12279007633587802,-0.1569351145038168,0
7768,-11.73523731689453,-2.16703359375,0.8130241943359374,0.024618320610687028,0.5044694656488551,-0.04243129770992371,0
7793,-11.766361938476564,-2.157456787109375,0.8034473876953124,-0.05171755725190841,0.5350038167938932,-0.24853816793893124,0
7818,-11.756785131835937,-2.1359089721679685,0.6717662963867187,-0.11278625954198473,0.28309541984732833,-0.2409045801526718,0
7843,-11.751996728515625,-2.14787998046875,0.7483807495117186,-0.05171755725190841,0.2601946564885498,-0.11113358778625948,0
7868,-11.828611181640625,-2.18618720703125,0.7842937744140625,0.08568702290076335,0.32889694656488566,-0.29433969465648857,0
7893,-11.737631518554686,-2.1071785522460935,0.7579575561523437,0.009351145038167918,0.13805725190839713,-0.17220229007633592,0
7919,-11.778332946777343,-2.1742161987304685,0.7196503295898437,-0.1662213740458015,-0.06804961832061052,-0.0271641221374046,0
7944,-11.771150341796876,-2.1359089721679685,0.7340155395507811,0.0780534351145038,0.07698854961832069,-0.10350000000000004,0
7969,-11.778332946777343,-2.2053408203125,0.8058415893554687,0.0780534351145038,0.13805725190839713,-0.11876717557251915,0
7994,-11.83100538330078,-2.1454857788085935,0.7244387329101561,-0.06698473282442752,0.1762251908396948,-0.1264007633587786,0
8019,-11.7807271484375,-2.1885814086914057,0.7483807495117186,-0.07461832061068707,0.3365305343511451,-0.16456870229007647,0
8044,-11.720872106933594,-2.14787998046875,0.7483807495117186,-0.05935114503816796,0.3059961832061069,-0.050064885496183265,0
8069,-11.838187988281248,-2.14787998046875,0.7411981445312499,-0.15858778625954195,0.42813358778625965,-0.17983587786259536,0
8094,-11.759179333496093,-2.104784350585937,0.7316213378906249,-0.06698473282442752,0.4205000000000001,-0.2409045801526718,0
8119,-11.732843115234374,-2.219706030273437,0.7124677246093749,-0.005916030534351191,0.015919847328244474,-0.1569351145038168,0
8144,-11.790303955078123,-2.181398803710937,0.6621894897460937,-0.08988549618320618,0.008286259541984808,-0.08059923664122137,0
8169,-11.783121350097655,-2.195764013671875,0.7100735229492187,-0.05935114503816796,0.11515648854961835,-0.2409045801526718,0
8194,-11.792698156738282,-2.2053408203125,0.7316213378906249,-0.15858778625954195,0.38233206106870243,-0.034797709923664155,0
8219,-11.766361938476564,-2.1167553588867185,0.7411981445312499,0.0017175572519083637,0.5579045801526719,-0.08059923664122137,0
8244,-11.732843115234374,-2.14787998046875,0.6574010864257812,0.0017175572519083637,-0.014614503816793745,-0.1264007633587786,0
8269,-11.737631518554686,-2.1454857788085935,0.6981025146484374,-0.01354961832061069,0.15332442748091624,-0.05769847328244282,0
8294,-11.775938745117188,-2.198158215332031,0.6885257080078124,-0.09751908396946563,0.4205000000000001,-0.20273664122137414,0
8319,-11.740025720214842,-2.123937963867187,0.7603517578125,-0.24255725190839694,0.206759541984733,-0.13403435114503826,0
8345,-11.75439093017578,-2.190975610351562,0.7747169677734375,-0.021183206106870245,0.05408778625954214,-0.034797709923664155,0
8370,-11.771150341796876,-2.133514770507812,0.6430358764648437,-0.09751908396946563,0.22966030534351156,-0.08059923664122137,0
8395,-11.797486560058594,-2.1646393920898435,0.7962647827148437,-0.06698473282442752,0.21439312977099245,-0.26380534351145035,0
8420,-11.728054711914062,-2.0688713256835936,0.674160498046875,-0.10515267175572518,0.405232824427481,-0.1416679389312977,0
8445,-11.787909753417967,-2.162245190429687,0.6861315063476562,-0.1509541984732825,0.5121030534351146,-0.09586641221374048,0
8470,-11.778332946777343,-2.119149560546875,0.6717662963867187,-0.005916030534351191,0.2220267175572519,-0.19510305343511447,0
8495,-11.7807271484375,-2.066477124023437,0.7196503295898437,0.047519083969465636,-0.02224809160305341,-0.10350000000000004,0
8520,-11.7807271484375,-2.143091577148437,0.7771111694335937,0.024618320610687028,0.008286259541984808,-0.011896946564885491,0
8545,-11.787909753417967,-2.14787998046875,0.6813431030273437,0.09332061068702285,0.321263358778626,-0.05769847328244282,0
8570,-11.761573535156248,-2.2125234252929684,0.6861315063476562,0.13148854961832057,0.3517977099236642,-0.21037022900763358,0
8595,-11.7807271484375,-2.119149560546875,0.7340155395507811,-0.12041984732824429,0.09988931297709924,-0.26380534351145035,0
8620,-11.763967736816404,-2.1550625854492185,0.7651401611328125,-0.17385496183206106,-0.02224809160305341,-0.05769847328244282,0
8645,-11.835793786621092,-2.200552416992187,0.7435923461914061,-0.01354961832061069,0.3517977099236642,-0.16456870229007647,0
8670,-11.76875614013672,-2.143091577148437,0.7196503295898437,0.0017175572519083637,0.47393511450381687,-0.26380534351145035,0
8695,-11.766361938476564,-2.1263321655273435,0.66458369140625,0.009351145038167918,0.11515648854961835,-0.06533206106870237,0
8720,-11.823822778320313,-2.1837930053710934,0.7555633544921875,-0.028816793893129744,0.14569083969465657,-0.14930152671755736,0
8745,-11.771150341796876,-2.104784350585937,0.7579575561523437,0.009351145038167918,0.2601946564885498,-0.034797709923664155,0
8771,-11.751996728515625,-2.1742161987304685,0.7244387329101561,-0.10515267175572518,0.321263358778626,-0.2256374045801527,0
8796,-11.807063366699218,-2.1502741821289058,0.7364097412109374,0.03988549618320608,0.34416412213740477,-0.08059923664122137,0
8821,-11.804669165039062,-2.143091577148437,0.6238822631835936,-0.05171755725190841,0.16095801526717568,-0.11876717557251915,0
8846,-11.783121350097655,-2.2316770385742184,0.8226010009765624,0.12385496183206107,0.22966030534351156,-0.385942748091603,0
8871,-11.75439093017578,-2.1694277954101557,0.7316213378906249,0.05515267175572519,0.4510343511450383,-0.385942748091603,0
8896,-11.797486560058594,-2.119149560546875,0.7459865478515624,-0.08988549618320618,0.4663015267175573,-0.004263358778625936,0
8921,-11.725660510253906,-2.102390148925781,0.7411981445312499,-0.028816793893129744,0.3365305343511451,-0.17220229007633592,0
8946,-11.802274963378906,-2.1406973754882808,0.7268329345703124,0.016984732824427473,0.41286641221374065,-0.21037022900763358,0
8971,-11.763967736816404,-2.111966955566406,0.7555633544921875,-0.07461832061068707,0.3517977099236642,-0.11113358778625948,0
8996,-11.792698156738282,-2.133514770507812,0.7004967163085937,0.0780534351145038,0.21439312977099245,-0.0271641221374046,0
9021,-11.79988076171875,-2.2316770385742184,0.7364097412109374,-0.07461832061068707,0.08462213740458036,-0.21800381679389325,0
9046,-11.749602526855469,-2.080842333984375,0.8082357910156249,0.047519083969465636,0.10752290076335891,-0.23327099236641236,0
9071,-11.804669165039062,-2.114361157226562,0.8752734375,-0.028816793893129744,0.4815687022900764,-0.17983587786259536,0
9096,-11.807063366699218,-2.1311205688476558,0.7004967163085937,-0.22729007633587783,0.21439312977099245,-0.0271641221374046,0
9121,-11.742419921875001,-2.195764013671875,0.6789489013671874,0.03225190839694653,-0.029881679389312854,-0.11113358778625948,0
9146,-11.778332946777343,-2.119149560546875,0.7411981445312499,0.12385496183206107,0.28309541984732833,-0.011896946564885491,0
9171,-11.804669165039062,-2.1742161987304685,0.769928564453125,-0.08225190839694663,0.31362977099236655,-0.09586641221374048,0
9197,-11.783121350097655,-2.2125234252929684,0.8058415893554687,0.024618320610687028,0.24492748091603067,-0.2561717557251909,0
9222,-11.763967736816404,-2.143091577148437,0.7747169677734375,-0.005916030534351191,0.12279007633587802,-0.17983587786259536,0
9247,-11.814245971679686,-2.1885814086914057,0.7172561279296874,0.06278625954198469,0.13042366412213746,-0.05769847328244282,0
9272,-11.809457568359374,-2.1263321655273435,0.8297836059570312,-0.1356870229007634,0.1914923664122139,-0.034797709923664155,0
9297,-11.7807271484375,-2.1694277954101557,0.77950537109375,0.08568702290076335,0.41286641221374065,-0.10350000000000004,0
9322,-11.828611181640625,-2.171821997070312,0.6310648681640625,-0.09751908396946563,0.31362977099236655,-0.18746946564885503,0
9347,-11.850158996582032,-2.1071785522460935,0.7459865478515624,0.0780534351145038,0.2601946564885498,-0.0271641221374046,0
9372,-11.773544543457032,-2.1837930053710934,0.8082357910156249,-0.07461832061068707,-0.06041603053435107,-0.16456870229007647,0
9397,-11.720872106933594,-2.2029466186523434,0.6502184814453125,-0.01354961832061069,0.015919847328244474,-0.1569351145038168,0
9422,-11.749602526855469,-2.1933698120117184,0.7603517578125,-0.18148854961832062,0.489202290076336,-0.11876717557251915,0
9447,-11.809457568359374,-2.099995947265625,0.7938705810546874,-0.05935114503816796,0.206759541984733,-0.18746946564885503,0
9472,-11.835793786621092,-2.1406973754882808,0.8058415893554687,0.05515267175572519,0.07698854961832069,-0.16456870229007647,0
9497,-11.720872106933594,-2.0976017456054685,0.7268329345703124,-0.15858778625954195,0.04645419847328247,-0.09586641221374048,0
9522,-11.766361938476564,-2.1550625854492185,0.8321778076171874,0.16202290076335873,0.2601946564885498,-0.23327099236641236,0
9547,-11.756785131835937,-2.0425351074218745,0.7483807495117186,-0.021183206106870245,0.13042366412213746,0.049171755725190835,0
9572,-11.797486560058594,-2.1694277954101557,0.7244387329101561,0.016984732824427473,0.3365305343511451,-0.26380534351145035,0
9597,-11.809457568359374,-2.1287263671875,0.7148619262695312,0.23072519083969464,0.06935496183206125,-0.16456870229007647,0
9623,-11.756785131835937,-2.162245190429687,0.7723227661132812,-0.08225190839694663,0.08462213740458036,-0.11113358778625948,0
9648,-11.823822778320313,-2.162245190429687,0.6478242797851562,0.016984732824427473,0.3059961832061069,-0.06533206106870237,0
9673,-11.730448913574218,-2.1359089721679685,0.7627459594726562,-0.10515267175572518,0.3899656488549619,-0.1569351145038168,0
9698,-11.72326630859375,-2.1742161987304685,0.7364097412109374,0.06278625954198469,0.14569083969465657,-0.2409045801526718,0
9723,-11.744814123535157,-2.16703359375,0.7771111694335937,0.05515267175572519,0.3899656488549619,-0.11876717557251915,0
9748,-11.823822778320313,-2.1287263671875,0.6765546997070312,-0.10515267175572518,0.0006526717557253647,0.0033702290076335073,0
9773,-11.7807271484375,-2.198158215332031,0.6981025146484374,-0.09751908396946563,0.29836259541984744,-0.11876717557251915,0
9798,-11.771150341796876,-2.157456787109375,0.6981025146484374,0.10858778625954196,0.14569083969465657,-0.034797709923664155,0
9823,-11.747208325195313,-2.18618720703125,0.7220445312499999,-0.10515267175572518,0.1914923664122139,-0.17220229007633592,0
9848,-11.761573535156248,-2.207735021972656,0.7579575561523437,0.05515267175572519,0.03118702290076336,-0.11876717557251915,0
9873,-11.792698156738282,-2.1287263671875,0.7483807495117186,0.10095419847328241,0.06172137404580158,-0.08823282442748093,0
9898,-11.84537059326172,-2.143091577148437,0.7316213378906249,0.06278625954198469,0.35943129770992366,-0.21037022900763358,0
9923,-11.751996728515625,-2.162245190429687,0.7220445312499999,-0.05935114503816796,0.237293893129771,-0.19510305343511447,0
9948,-11.787909753417967,-2.1550625854492185,0.7004967163085937,-0.0364503816793893,0.21439312977099245,-0.1416679389312977,0
9973,-11.75439093017578,-2.14787998046875,0.7268329345703124,-0.01354961832061069,0.2754618320610689,-0.05769847328244282,0
9998,-11.75439093017578,-2.2221002319335934,0.7459865478515624,-0.06698473282442752,0.2754618320610689,-0.18746946564885503,0
10024,-11.763967736816404,-2.1406973754882808,0.7435923461914061,-0.05171755725190841,0.35943129770992366,-0.30197328244274824,0
10049,-11.821428576660157,-2.210129223632812,0.7627459594726562,-0.10515267175572518,0.15332442748091624,-0.1416679389312977,0
10074,-11.802274963378906,-2.162245190429687,0.7675343627929687,-0.12805343511450384,0.237293893129771,-0.05769847328244282,0
10099,-11.7807271484375,-2.123937963867187,0.789082177734375,0.07041984732824424,0.22966030534351156,-0.1264007633587786,0
10124,-11.795092358398438,-2.1933698120117184,0.6885257080078124,0.024618320610687028,0.2601946564885498,-0.17220229007633592,0
10149,-11.778332946777343,-2.1933698120117184,0.7555633544921875,-0.021183206106870245,0.24492748091603067,-0.019530534351145046,0
10174,-11.823822778320313,-2.195764013671875,0.7555633544921875,-0.11278625954198473,0.21439312977099245,-0.14930152671755736,0
10199,-11.728054711914062,-2.16703359375,0.7076793212890624,-0.17385496183206106,0.3059961832061069,-0.09586641221374048,0
10224,-11.773544543457032,-2.18618720703125,0.6957083129882812,-0.0364503816793893,0.32889694656488566,-0.019530534351145046,0
10249,-11.778332946777343,-2.198158215332031,0.7316213378906249,-0.028816793893129744,0.21439312977099245,-0.11113358778625948,0
10274,-11.792698156738282,-2.1933698120117184,0.655006884765625,-0.005916030534351191,0.3059961832061069,-0.09586641221374048,0
10299,-11.732843115234374,-2.1502741821289058,0.7531691528320312,0.016984732824427473,0.49683587786259553,-0.27143893129771,0
10324,-11.783121350097655,-2.181398803710937,0.6933141113281249,0.20019083969465645,0.07698854961832069,-0.17220229007633592,0
10349,-11.81185177001953,-2.1263321655273435,0.7148619262695312,-0.08225190839694663,0.15332442748091624,-0.19510305343511447,0
10374,-11.740025720214842,-2.162245190429687,0.7627459594726562,0.11622137404580152,0.07698854961832069,-0.1264007633587786,0
10399,-11.771150341796876,-2.1646393920898435,0.8369662109374999,-0.04408396946564885,0.05408778625954214,-0.1416679389312977,0
10424,-11.81185177001953,-2.152668383789062,0.7196503295898437,-0.12805343511450384,0.29836259541984744,-0.18746946564885503,0
10449,-11.819034375000001,-2.200552416992187,0.6765546997070312,-0.18912213740458017,0.3365305343511451,-0.09586641221374048,0
10475,-11.787909753417967,-2.18618720703125,0.6765546997070312,-0.0364503816793893,0.10752290076335891,-0.2256374045801527,0
10500,-11.744814123535157,-2.143091577148437,0.7268329345703124,0.05515267175572519,0.0922557251908398,-0.08823282442748093,0
10525,-11.7807271484375,-2.1502741821289058,0.7028909179687499,-0.11278625954198473,0.41286641221374065,-0.26380534351145035,0
10550,-11.83100538330078,-2.2053408203125,0.7411981445312499,-0.10515267175572518,0.2601946564885498,-0.24853816793893124,0
10575,-11.766361938476564,-2.181398803710937,0.7866879760742187,0.06278625954198469,0.06935496183206125,-0.09586641221374048,0
10600,-11.708901098632811,-2.190975610351562,0.6574010864257812,0.10858778625954196,0.06935496183206125,-0.18746946564885503,0
10625,-11.778332946777343,-2.1598509887695307,0.7842937744140625,-0.028816793893129744,0.3059961832061069,0.06443893129770983,0
10650,-11.740025720214842,-2.1598509887695307,0.7986589843749999,-0.1509541984732825,0.13042366412213746,-0.23327099236641236,0
10675,-11.828611181640625,-2.138303173828125,0.7627459594726562,-0.05171755725190841,0.023553435114503918,-0.1416679389312977,0
10700,-11.773544543457032,-2.198158215332031,0.7411981445312499,0.016984732824427473,0.34416412213740477,-0.1264007633587786,0
10725,-11.749602526855469,-2.104784350585937,0.7651401611328125,0.009351145038167918,0.1914923664122139,-0.034797709923664155,0
10750,-11.761573535156248,-2.133514770507812,0.7579575561523437,-0.06698473282442752,0.206759541984733,-0.17983587786259536,0
10775,-11.795092358398438,-2.2412538452148434,0.7052851196289062,-0.20438931297709928,0.206759541984733,-0.11876717557251915,0
10800,-11.792698156738282,-2.102390148925781,0.769928564453125,-0.08988549618320618,0.34416412213740477,-0.18746946564885503,0
10825,-11.761573535156248,-2.207735021972656,0.6717662963867187,0.07041984732824424,0.34416412213740477,-0.27143893129771,0
10850,-11.840582189941404,-2.200552416992187,0.7818995727539062,0.03988549618320608,-0.06041603053435107,0.04153816793893128,0
10876,-11.826216979980469,-2.1790046020507807,0.7675343627929687,-0.021183206106870245,0.04645419847328247,-0.21800381679389325,0
10901,-11.807063366699218,-2.1454857788085935,0.7651401611328125,-0.0364503816793893,0.11515648854961835,-0.19510305343511447,0
10926,-11.675382275390625,-2.195764013671875,0.6957083129882812,0.05515267175572519,0.12279007633587802,-0.13403435114503826,0
10951,-11.821428576660157,-2.1550625854492185,0.7268329345703124,-0.01354961832061069,0.206759541984733,-0.0271641221374046,0
10976,-11.826216979980469,-2.210129223632812,0.7507749511718749,-0.09751908396946563,0.2907290076335878,-0.1416679389312977,0
11001,-11.72326630859375,-2.133514770507812,0.77950537109375,-0.01354961832061069,0.2907290076335878,-0.1416679389312977,0
11026,-11.742419921875001,-2.1263321655273435,0.6765546997070312,-0.14332061068702295,0.3517977099236642,-0.04243129770992371,0
11051,-11.744814123535157,-2.1885814086914057,0.7914763793945312,-0.05171755725190841,0.06172137404580158,-0.1264007633587786,0
11076,-11.795092358398438,-2.1694277954101557,0.7866879760742187,-0.10515267175572518,0.31362977099236655,-0.1416679389312977,0
11101,-11.766361938476564,-2.1790046020507807,0.7531691528320312,-0.18912213740458017,0.06935496183206125,-0.19510305343511447,0
11126,-11.775938745117188,-2.133514770507812,0.7172561279296874,-0.021183206106870245,0.2601946564885498,0.018637404580152617,0
11151,-11.763967736816404,-2.176610400390625,0.7603517578125,-0.12041984732824429,0.22966030534351156,-0.019530534351145046,0
11176,-11.737631518554686,-2.2221002319335934,0.8202067993164062,0.009351145038167918,0.14569083969465657,-0.09586641221374048,0
11201,-11.759179333496093,-2.1933698120117184,0.8130241943359374,0.024618320610687028,0.16859160305343512,0.011003816793893062,0
11226,-11.759179333496093,-2.1287263671875,0.7603517578125,0.03988549618320608,0.09988931297709924,-0.14930152671755736,0
11252,-11.809457568359374,-2.171821997070312,0.8058415893554687,-0.21202290076335883,0.3517977099236642,-0.3096068702290077,0
11277,-11.737631518554686,-2.2125234252929684,0.7196503295898437,-0.06698473282442752,0.4510343511450383,-0.2561717557251909,0
11302,-11.778332946777343,-2.16703359375,0.8369662109374999,-0.04408396946564885,0.11515648854961835,-0.17983587786259536,0
11327,-11.807063366699218,-2.1311205688476558,0.8154183959960937,0.10858778625954196,0.4205000000000001,-0.0271641221374046,0
11352,-11.790303955078123,-2.18618720703125,0.7364097412109374,-0.09751908396946563,0.32889694656488566,-0.11876717557251915,0
11377,-11.821428576660157,-2.210129223632812,0.7100735229492187,0.0017175572519083637,0.16095801526717568,-0.1569351145038168,0
11402,-11.732843115234374,-2.104784350585937,0.6789489013671874,-0.3188931297709924,0.14569083969465657,-0.16456870229007647,0
11427,-11.819034375000001,-2.1933698120117184,0.674160498046875,0.09332061068702285,0.2220267175572519,-0.1264007633587786,0
11452,-11.708901098632811,-2.073659729003906,0.6717662963867187,0.08568702290076335,0.15332442748091624,-0.09586641221374048,0
11477,-11.763967736816404,-2.138303173828125,0.6933141113281249,0.10095419847328241,0.16859160305343512,-0.08823282442748093,0
11502,-11.682564880371093,-2.1837930053710934,0.7411981445312499,0.0780534351145038,0.31362977099236655,-0.14930152671755736,0
11527,-11.792698156738282,-2.1837930053710934,0.6981025146484374,-0.021183206106870245,0.21439312977099245,-0.19510305343511447,0
11552,-11.787909753417967,-2.152668383789062,0.7723227661132812,-0.08225190839694663,0.22966030534351156,-0.13403435114503826,0
11577,-11.795092358398438,-2.1263321655273435,0.769928564453125,0.047519083969465636,0.41286641221374065,-0.011896946564885491,0
11602,-11.795092358398438,-2.14787998046875,0.7938705810546874,-0.06698473282442752,0.4357671755725192,-0.11113358778625948,0
11627,-11.807063366699218,-2.1550625854492185,0.7531691528320312,-0.08988549618320618,0.22966030534351156,-0.08059923664122137,0
11653,-11.81185177001953,-2.190975610351562,0.7818995727539062,-0.11278625954198473,0.04645419847328247,-0.09586641221374048,0
11678,-11.728054711914062,-2.1933698120117184,0.7076793212890624,-0.028816793893129744,0.13042366412213746,-0.2409045801526718,0
11703,-11.823822778320313,-2.157456787109375,0.7148619262695312,0.024618320610687028,0.16859160305343512,-0.18746946564885503,0
11728,-11.833399584960937,-2.176610400390625,0.7340155395507811,0.0780534351145038,0.06935496183206125,0.011003816793893062,0
11753,-11.795092358398438,-2.2125234252929684,0.6310648681640625,-0.07461832061068707,0.16095801526717568,-0.07296564885496182,0
11778,-11.72326630859375,-2.2149176269531248,0.7196503295898437,0.0017175572519083637,0.37469847328244277,-0.08823282442748093,0
11803,-11.773544543457032,-2.102390148925781,0.7028909179687499,0.024618320610687028,0.6953091603053436,-0.09586641221374048,0
11828,-11.790303955078123,-2.219706030273437,0.6813431030273437,-0.11278625954198473,0.4815687022900764,-0.30197328244274824,0
11853,-11.775938745117188,-2.157456787109375,0.7459865478515624,-0.06698473282442752,0.237293893129771,-0.13403435114503826,0
11878,-11.663411267089842,-2.16703359375,0.7603517578125,-0.1509541984732825,0.3899656488549619,-0.1569351145038168,0
11903,-11.809457568359374,-2.114361157226562,0.7364097412109374,-0.1662213740458015,0.13042366412213746,0.04153816793893128,0
11928,-11.795092358398438,-2.190975610351562,0.6693720947265624,-0.028816793893129744,-0.029881679389312854,-0.1569351145038168,0
11953,-11.787909753417967,-2.1502741821289058,0.7196503295898437,0.009351145038167918,-0.1367519083969464,-0.10350000000000004,0
11979,-11.802274963378906,-2.207735021972656,0.7938705810546874,0.03225190839694653,0.2220267175572519,0.04153816793893128,0
12004,-11.744814123535157,-2.152668383789062,0.8034473876953124,-0.07461832061068707,0.28309541984732833,-0.2561717557251909,0
12029,-11.75439093017578,-2.090419140625,0.7100735229492187,-0.09751908396946563,0.2220267175572519,-0.1569351145038168,0
12054,-11.706506896972655,-2.2149176269531248,0.7292271362304686,0.03225190839694653,0.18385877862595423,-0.08059923664122137,0
12079,-11.814245971679686,-2.2125234252929684,0.7268329345703124,-0.01354961832061069,-0.02224809160305341,-0.3172404580152671,0
12104,-11.718477905273438,-2.1406973754882808,0.7986589843749999,-0.15858778625954195,0.22966030534351156,-0.2561717557251909,0
12129,-11.819034375000001,-2.236465441894531,0.6837373046874999,0.05515267175572519,0.3899656488549619,-0.14930152671755736,0
12154,-11.802274963378906,-2.152668383789062,0.7340155395507811,-0.0364503816793893,-0.006980916030534301,-0.2409045801526718,0
12179,-11.787909753417967,-2.1790046020507807,0.8202067993164062,0.12385496183206107,0.15332442748091624,-0.2256374045801527,0
12204,-11.83100538330078,-2.2029466186523434,0.6837373046874999,-0.1356870229007634,0.44340076335877876,0.0033702290076335073,0
12229,-11.778332946777343,-2.171821997070312,0.6789489013671874,0.024618320610687028,0.2678282442748092,-0.1569351145038168,0
12254,-11.795092358398438,-2.1885814086914057,0.769928564453125,-0.01354961832061069,0.29836259541984744,-0.08823282442748093,0
12279,-11.775938745117188,-2.123937963867187,0.7938705810546874,0.15438931297709924,0.2220267175572519,-0.1569351145038168,0
12304,-11.828611181640625,-2.1933698120117184,0.7555633544921875,0.03988549618320608,-0.029881679389312854,-0.06533206106870237,0
12329,-11.720872106933594,-2.176610400390625,0.7292271362304686,-0.005916030534351191,0.37469847328244277,-0.07296564885496182,0
12355,-11.737631518554686,-2.207735021972656,0.6526126831054687,-0.12805343511450384,0.4357671755725192,-0.20273664122137414,0
12380,-11.790303955078123,-2.1790046020507807,0.7004967163085937,0.047519083969465636,0.34416412213740477,-0.1416679389312977,0
12405,-11.761573535156248,-2.2053408203125,0.7268329345703124,-0.028816793893129744,-0.15965267175572517,-0.08823282442748093,0
12430,-11.749602526855469,-2.1790046020507807,0.769928564453125,0.05515267175572519,0.0922557251908398,-0.050064885496183265,0
12455,-11.807063366699218,-2.1311205688476558,0.635853271484375,0.03225190839694653,0.49683587786259553,0.0033702290076335073,0
12480,-11.73523731689453,-2.123937963867187,0.7388039428710936,-0.021183206106870245,0.2754618320610689,-0.1416679389312977,0
12505,-11.773544543457032,-2.162245190429687,0.7004967163085937,0.047519083969465636,-0.2512557251908396,-0.011896946564885491,0
12530,-11.663411267089842,-2.133514770507812,0.8034473876953124,-0.028816793893129744,-0.029881679389312854,-0.16456870229007647,0
12555,-11.771150341796876,-2.157456787109375,0.7771111694335937,-0.12041984732824429,0.28309541984732833,-0.11876717557251915,0
12580,-11.72326630859375,-2.1646393920898435,0.7052851196289062,0.016984732824427473,0.2907290076335878,0.02627099236641217,0
12605,-11.771150341796876,-2.119149560546875,0.769928564453125,-0.11278625954198473,0.1762251908396948,-0.11876717557251915,0
12630,-11.775938745117188,-2.1790046020507807,0.6789489013671874,0.03988549618320608,0.29836259541984744,-0.08823282442748093,0
12655,-11.728054711914062,-2.1694277954101557,0.6597952880859375,0.03225190839694653,0.24492748091603067,-0.13403435114503826,0
12680,-11.823822778320313,-2.1885814086914057,0.7675343627929687,-0.21202290076335883,0.22966030534351156,-0.27907251908396946,0
12705,-11.790303955078123,-2.121543762207031,0.7675343627929687,-0.04408396946564885,0.405232824427481,-0.17983587786259536,0
12730,-11.742419921875001,-2.10957275390625,0.7268329345703124,0.016984732824427473,0.37469847328244277,-0.1569351145038168,0
12756,-11.763967736816404,-2.1263321655273435,0.7148619262695312,0.08568702290076335,0.05408778625954214,-0.08823282442748093,0
12781,-11.732843115234374,-2.1742161987304685,0.7914763793945312,-0.09751908396946563,0.11515648854961835,-0.04243129770992371,0
12806,-11.828611181640625,-2.1359089721679685,0.8058415893554687,-0.12041984732824429,0.06935496183206125,-0.019530534351145046,0
12831,-11.713689501953123,-2.210129223632812,0.7771111694335937,0.05515267175572519,0.22966030534351156,-0.13403435114503826,0
12856,-11.828611181640625,-2.162245190429687,0.7220445312499999,-0.21202290076335883,0.12279007633587802,-0.034797709923664155,0
12881,-11.804669165039062,-2.152668383789062,0.655006884765625,-0.10515267175572518,0.1762251908396948,-0.2256374045801527,0
12906,-11.687353283691404,-2.190975610351562,0.7172561279296874,-0.11278625954198473,0.5426374045801527,-0.07296564885496182,0
12931,-11.759179333496093,-2.157456787109375,0.6310648681640625,-0.04408396946564885,0.47393511450381687,-0.1264007633587786,0
12956,-11.804669165039062,-2.152668383789062,0.6502184814453125,-0.09751908396946563,0.3365305343511451,-0.2256374045801527,0
12981,-11.838187988281248,-2.1550625854492185,0.6957083129882812,0.03225190839694653,0.35943129770992366,-0.011896946564885491,0
13006,-11.72326630859375,-2.236465441894531,0.769928564453125,-0.06698473282442752,-0.006980916030534301,-0.08059923664122137,0
13031,-11.761573535156248,-2.1263321655273435,0.7316213378906249,0.07041984732824424,-0.06041603053435107,-0.1569351145038168,0
13056,-11.773544543457032,-2.1454857788085935,0.7723227661132812,0.05515267175572519,0.2220267175572519,-0.21037022900763358,0
13081,-11.785515551757811,-2.181398803710937,0.6885257080078124,-0.11278625954198473,0.3517977099236642,-0.06533206106870237,0
13106,-11.751996728515625,-2.181398803710937,0.7747169677734375,-0.005916030534351191,0.38233206106870243,-0.24853816793893124,0
13132,-11.775938745117188,-2.1359089721679685,0.7435923461914061,-0.11278625954198473,0.4357671755725192,-0.11876717557251915,0
13157,-11.761573535156248,-2.1933698120117184,0.7052851196289062,-0.01354961832061069,0.5426374045801527,-0.07296564885496182,0
13182,-11.7807271484375,-2.104784350585937,0.7052851196289062,-0.04408396946564885,0.58843893129771,0.018637404580152617,0
13207,-11.783121350097655,-2.1790046020507807,0.7100735229492187,-0.0364503816793893,0.15332442748091624,-0.08823282442748093,0
13232,-11.778332946777343,-2.133514770507812,0.7028909179687499,0.06278625954198469,-0.2665229007633587,-0.1416679389312977,0
13257,-11.687353283691404,-2.138303173828125,0.7244387329101561,0.07041984732824424,0.13042366412213746,-0.20273664122137414,0
13282,-11.790303955078123,-2.143091577148437,0.7388039428710936,0.03225190839694653,-0.014614503816793745,-0.11876717557251915,0
13307,-11.761573535156248,-2.1837930053710934,0.7651401611328125,0.11622137404580152,0.206759541984733,-0.1264007633587786,0
13332,-11.725660510253906,-2.171821997070312,0.6837373046874999,-0.05935114503816796,0.18385877862595423,-0.1264007633587786,0
13357,-11.792698156738282,-2.143091577148437,0.7723227661132812,-0.06698473282442752,0.4815687022900764,0.018637404580152617,0
13382,-11.795092358398438,-2.176610400390625,0.7244387329101561,-0.028816793893129744,0.3365305343511451,-0.034797709923664155,0
13407,-11.75439093017578,-2.18618720703125,0.6286706665039061,0.03225190839694653,0.11515648854961835,-0.1416679389312977,0
13432,-11.826216979980469,-2.171821997070312,0.6765546997070312,0.07041984732824424,0.237293893129771,-0.08059923664122137,0
13457,-11.79988076171875,-2.1550625854492185,0.7723227661132812,0.0017175572519083637,0.22966030534351156,-0.3096068702290077,0
13482,-11.783121350097655,-2.138303173828125,0.7028909179687499,-0.0364503816793893,0.2907290076335878,-0.11113358778625948,0
13507,-11.67777647705078,-2.14787998046875,0.7483807495117186,0.08568702290076335,0.31362977099236655,-0.050064885496183265,0
13533,-11.816640173339842,-2.1502741821289058,0.789082177734375,0.05515267175572519,0.0006526717557253647,-0.2409045801526718,0
13558,-11.747208325195313,-2.1598509887695307,0.7364097412109374,0.047519083969465636,-0.42682824427480903,-0.2561717557251909,0
13583,-11.728054711914062,-2.171821997070312,0.7483807495117186,0.06278625954198469,-0.2817900763358778,-0.10350000000000004,0
13608,-11.823822778320313,-2.123937963867187,0.7388039428710936,0.03225190839694653,0.09988931297709924,-0.14930152671755736,0
13633,-11.778332946777343,-2.1406973754882808,0.7148619262695312,-0.05935114503816796,0.9472175572519085,-0.2561717557251909,0
13658,-11.795092358398438,-2.200552416992187,0.7244387329101561,-0.14332061068702295,1.0998893129770995,-0.3706755725190839,0
13683,-11.737631518554686,-2.085630737304687,0.7459865478515624,-0.10515267175572518,0.4663015267175573,-0.27907251908396946,0
13708,-11.737631518554686,-2.1550625854492185,0.7124677246093749,-0.05171755725190841,0.05408778625954214,-0.23327099236641236,0
13733,-11.81185177001953,-2.1598509887695307,0.7220445312499999,-0.12805343511450384,-0.1062175572519084,-0.2561717557251909,0
13758,-11.732843115234374,-2.152668383789062,0.7316213378906249,-0.1509541984732825,0.1914923664122139,0.049171755725190835,0
13783,-11.771150341796876,-2.1311205688476558,0.7316213378906249,0.0780534351145038,0.35943129770992366,-0.21037022900763358,0
13808,-11.763967736816404,-2.229282836914062,0.6502184814453125,0.024618320610687028,0.023553435114503918,-0.08059923664122137,0
13833,-11.775938745117188,-2.133514770507812,0.7364097412109374,0.03225190839694653,-0.4344618320610687,-0.16456870229007647,0
13858,-11.778332946777343,-2.16703359375,0.6981025146484374,0.009351145038167918,0.29836259541984744,-0.050064885496183265,0
13883,-11.713689501953123,-2.2053408203125,0.7172561279296874,-0.12805343511450384,0.5960725190839695,0.011003816793893062,0
13908,-11.747208325195313,-2.1071785522460935,0.6597952880859375,-0.12041984732824429,0.6495076335877864,-0.06533206106870237,0
13934,-11.795092358398438,-2.1287263671875,0.6669778930664062,0.009351145038167918,0.6266068702290077,-0.2867061068702291,0
13959,-11.804669165039062,-2.190975610351562,0.7627459594726562,-0.17385496183206106,0.34416412213740477,-0.09586641221374048,0
13984,-11.749602526855469,-2.138303173828125,0.7196503295898437,0.05515267175572519,0.3059961832061069,-0.1264007633587786,0
14009,-11.807063366699218,-2.0976017456054685,0.7459865478515624,-0.028816793893129744,0.321263358778626,-0.2561717557251909,0
14034,-11.79988076171875,-2.14787998046875,0.7268329345703124,-0.005916030534351191,0.24492748091603067,-0.24853816793893124,0
14059,-11.75439093017578,-2.1502741821289058,0.8202067993164062,0.0780534351145038,-0.05278244274809141,-0.11876717557251915,0
14084,-11.76875614013672,-2.114361157226562,0.7459865478515624,0.13148854961832057,-0.09095038167938929,-0.21037022900763358,0
14109,-11.802274963378906,-2.095207543945312,0.6693720947265624,0.06278625954198469,0.09988931297709924,-0.04243129770992371,0
14134,-11.797486560058594,-2.181398803710937,0.7100735229492187,-0.19675572519083973,0.22966030534351156,-0.3248740458015268,0
14159,-11.742419921875001,-2.123937963867187,0.7507749511718749,-0.07461832061068707,0.237293893129771,-0.06533206106870237,0
14184,-11.816640173339842,-2.157456787109375,0.7675343627929687,0.024618320610687028,0.39759923664122154,-0.14930152671755736,0
14209,-11.854947399902343,-2.119149560546875,0.7028909179687499,-0.0364503816793893,0.4663015267175573,-0.050064885496183265,0
14234,-11.751996728515625,-2.1287263671875,0.7651401611328125,-0.17385496183206106,0.37469847328244277,-0.05769847328244282,0
14259,-11.711295300292967,-2.1287263671875,0.7579575561523437,-0.05171755725190841,0.15332442748091624,-0.050064885496183265,0
14284,-11.766361938476564,-2.181398803710937,0.7052851196289062,0.024618320610687028,0.13805725190839713,-0.2256374045801527,0
14309,-11.823822778320313,-2.157456787109375,0.7340155395507811,0.1925572519083969,-0.12148473282442729,-0.2256374045801527,0
14334,-11.763967736816404,-2.2244944335937498,0.6669778930664062,0.024618320610687028,-0.014614503816793745,-0.004263358778625936,0
14360,-11.761573535156248,-2.1454857788085935,0.7507749511718749,-0.08225190839694663,0.1914923664122139,-0.10350000000000004,0
14385,-11.819034375000001,-2.198158215332031,0.6861315063476562,0.13912213740458013,0.06172137404580158,-0.08823282442748093,0
14410,-11.814245971679686,-2.1502741821289058,0.7435923461914061,-0.15858778625954195,0.15332442748091624,-0.019530534351145046,0
14435,-11.804669165039062,-2.121543762207031,0.6957083129882812,-0.20438931297709928,0.44340076335877876,-0.1569351145038168,0
14460,-11.795092358398438,-2.1502741821289058,0.8585140258789061,-0.11278625954198473,0.42813358778625965,-0.1416679389312977,0
14485,-11.773544543457032,-2.1263321655273435,0.6885257080078124,-0.028816793893129744,0.5808053435114505,-0.26380534351145035,0
14510,-11.756785131835937,-2.1263321655273435,0.77950537109375,-0.09751908396946563,0.2907290076335878,-0.33250763358778623,0
14535,-11.761573535156248,-2.207735021972656,0.6885257080078124,-0.14332061068702295,0.008286259541984808,-0.1264007633587786,0
14560,-11.766361938476564,-2.176610400390625,0.6957083129882812,-0.08225190839694663,0.06935496183206125,-0.07296564885496182,0
14585,-11.785515551757811,-2.123937963867187,0.7842937744140625,0.14675572519083968,0.023553435114503918,-0.14930152671755736,0
14610,-11.759179333496093,-2.119149560546875,0.7842937744140625,0.05515267175572519,-0.07568320610687018,-0.07296564885496182,0
14635,-11.730448913574218,-2.1885814086914057,0.7028909179687499,-0.04408396946564885,0.2220267175572519,-0.050064885496183265,0
14660,-11.783121350097655,-2.1502741821289058,0.7364097412109374,0.047519083969465636,-0.04514885496183196,0.011003816793893062,0
14685,-11.790303955078123,-2.1837930053710934,0.7316213378906249,-0.028816793893129744,0.19912595419847334,-0.07296564885496182,0
14710,-11.773544543457032,-2.162245190429687,0.7531691528320312,-0.05171755725190841,0.3365305343511451,-0.08823282442748093,0
14735,-11.792698156738282,-2.1311205688476558,0.8417546142578124,0.12385496183206107,0.22966030534351156,-0.04243129770992371,0
14761,-11.785515551757811,-2.2244944335937498,0.8034473876953124,0.11622137404580152,0.15332442748091624,-0.29433969465648857,0
14786,-11.72326630859375,-2.1694277954101557,0.7244387329101561,-0.12805343511450384,0.13805725190839713,-0.06533206106870237,0
14811,-11.761573535156248,-2.1646393920898435,0.5975460449218749,0.06278625954198469,0.015919847328244474,-0.29433969465648857,0
14836,-11.749602526855469,-2.1263321655273435,0.7818995727539062,0.016984732824427473,0.2525610687022901,-0.1416679389312977,0
14861,-11.81185177001953,-2.152668383789062,0.7842937744140625,0.016984732824427473,0.06172137404580158,-0.11876717557251915,0
14886,-11.819034375000001,-2.176610400390625,0.7340155395507811,-0.028816793893129744,0.15332442748091624,-0.1569351145038168,0
14911,-11.747208325195313,-2.090419140625,0.7771111694335937,0.06278625954198469,0.12279007633587802,-0.10350000000000004,0
14936,-11.795092358398438,-2.1263321655273435,0.7148619262695312,-0.08225190839694663,0.16859160305343512,-0.14930152671755736,0
14961,-11.763967736816404,-2.1167553588867185,0.77950537109375,-0.2196564885496184,0.29836259541984744,-0.2409045801526718,0
14986,-11.785515551757811,-2.133514770507812,0.6957083129882812,0.0780534351145038,0.1762251908396948,-0.11876717557251915,0
15011,-11.730448913574218,-2.157456787109375,0.7124677246093749,-0.11278625954198473,0.34416412213740477,-0.05769847328244282,0
15036,-11.783121350097655,-2.121543762207031,0.7531691528320312,-0.07461832061068707,0.2601946564885498,-0.11113358778625948,0
15061,-11.823822778320313,-2.2053408203125,0.8010531860351562,-0.05935114503816796,0.3517977099236642,-0.13403435114503826,0
15086,-11.783121350097655,-2.1287263671875,0.7388039428710936,-0.04408396946564885,0.31362977099236655,-0.16456870229007647,0
15111,-11.792698156738282,-2.1742161987304685,0.6813431030273437,-0.15858778625954195,-0.09858396946564874,-0.19510305343511447,0
15136,-11.737631518554686,-2.133514770507812,0.7220445312499999,-0.12041984732824429,0.2220267175572519,-0.20273664122137414,0
15162,-11.75439093017578,-2.1694277954101557,0.7076793212890624,0.13912213740458013,0.2754618320610689,-0.1416679389312977,0
15187,-11.842976391601564,-2.1742161987304685,0.7435923461914061,0.03988549618320608,0.45866793893129776,-0.18746946564885503,0
15212,-11.773544543457032,-2.1454857788085935,0.6597952880859375,-0.1509541984732825,0.5273702290076336,-0.2867061068702291,0
15237,-11.785515551757811,-2.198158215332031,0.7028909179687499,0.016984732824427473,0.1914923664122139,-0.19510305343511447,0
15262,-11.732843115234374,-2.1550625854492185,0.6909199096679687,-0.2349236641221374,0.1914923664122139,-0.16456870229007647,0
15287,-11.773544543457032,-2.1406973754882808,0.7579575561523437,-0.06698473282442752,0.45866793893129776,-0.2256374045801527,0
15312,-11.802274963378906,-2.1550625854492185,0.7220445312499999,-0.1662213740458015,0.34416412213740477,-0.2409045801526718,0
15337,-11.73523731689453,-2.119149560546875,0.6382474731445312,-0.08988549618320618,0.14569083969465657,-0.21800381679389325,0
15362,-11.730448913574218,-2.200552416992187,0.7148619262695312,0.10095419847328241,0.18385877862595423,-0.06533206106870237,0
15387,-11.696930090332032,-2.162245190429687,0.7220445312499999,0.12385496183206107,0.03118702290076336,-0.034797709923664155,0
15412,-11.756785131835937,-2.195764013671875,0.7411981445312499,0.06278625954198469,0.2754618320610689,-0.17220229007633592,0
15437,-11.75439093017578,-2.10957275390625,0.6382474731445312,-0.04408396946564885,0.2220267175572519,-0.08823282442748093,0
15462,-11.795092358398438,-2.1550625854492185,0.7459865478515624,-0.18912213740458017,0.32889694656488566,-0.019530534351145046,0
15487,-11.732843115234374,-2.1359089721679685,0.7100735229492187,-0.028816793893129744,0.05408778625954214,-0.2256374045801527,0
15512,-11.763967736816404,-2.1167553588867185,0.7004967163085937,0.0017175572519083637,0.35943129770992366,-0.16456870229007647,0
15537,-11.81185177001953,-2.1646393920898435,0.7579575561523437,-0.10515267175572518,0.32889694656488566,0.018637404580152617,0
15563,-11.814245971679686,-2.1837930053710934,0.769928564453125,-0.08988549618320618,0.2220267175572519,-0.21037022900763358,0
15588,-11.79988076171875,-2.1502741821289058,0.7076793212890624,-0.05935114503816796,0.0922557251908398,-0.1569351145038168,0
15613,-11.775938745117188,-2.121543762207031,0.7771111694335937,0.016984732824427473,0.07698854961832069,-0.18746946564885503,0
15638,-11.749602526855469,-2.1550625854492185,0.7340155395507811,-0.028816793893129744,0.07698854961832069,0.0033702290076335073,0
15663,-11.847764794921876,-2.152668383789062,0.8417546142578124,-0.028816793893129744,0.2754618320610689,-0.16456870229007647,0
15688,-11.747208325195313,-2.1837930053710934,0.6526126831054687,-0.028816793893129744,0.206759541984733,-0.26380534351145035,0
15713,-11.838187988281248,-2.1694277954101557,0.7220445312499999,-0.17385496183206106,0.2754618320610689,0.0033702290076335073,0
15738,-11.79988076171875,-2.1167553588867185,0.7914763793945312,-0.1509541984732825,0.321263358778626,-0.0271641221374046,0
15763,-11.787909753417967,-2.171821997070312,0.8202067993164062,-0.11278625954198473,0.2525610687022901,-0.1569351145038168,0
15788,-11.773544543457032,-2.14787998046875,0.7459865478515624,-0.11278625954198473,0.206759541984733,-0.04243129770992371,0
15813,-11.778332946777343,-2.226888635253906,0.6669778930664062,-0.08988549618320618,0.22966030534351156,-0.13403435114503826,0
15838,-11.771150341796876,-2.162245190429687,0.8226010009765624,0.0780534351145038,0.321263358778626,-0.11876717557251915,0
15863,-11.749602526855469,-2.1933698120117184,0.7723227661132812,0.03988549618320608,0.10752290076335891,-0.17220229007633592,0
15889,-11.771150341796876,-2.080842333984375,0.7842937744140625,-0.1509541984732825,0.15332442748091624,-0.3248740458015268,0
15914,-11.778332946777343,-2.138303173828125,0.7124677246093749,0.03225190839694653,0.2220267175572519,-0.24853816793893124,0
15939,-11.759179333496093,-2.1550625854492185,0.7411981445312499,-0.06698473282442752,0.03118702290076336,-0.1569351145038168,0
15964,-11.763967736816404,-2.073659729003906,0.7555633544921875,-0.18148854961832062,0.3899656488549619,-0.11876717557251915,0
15989,-11.785515551757811,-2.133514770507812,0.7148619262695312,-0.04408396946564885,0.13042366412213746,-0.11876717557251915,0
16014,-11.773544543457032,-2.0976017456054685,0.7388039428710936,0.016984732824427473,0.2601946564885498,-0.08823282442748093,0
16040,-11.838187988281248,-2.1359089721679685,0.7459865478515624,0.047519083969465636,0.10752290076335891,-0.16456870229007647,0
16065,-11.720872106933594,-2.0976017456054685,0.7579575561523437,-0.01354961832061069,0.2525610687022901,-0.30197328244274824,0
16090,-11.766361938476564,-2.2508306518554684,0.7172561279296874,0.024618320610687028,0.321263358778626,-0.21037022900763358,0
16115,-11.804669165039062,-2.090419140625,0.7268329345703124,-0.04408396946564885,0.206759541984733,-0.16456870229007647,0
16140,-11.838187988281248,-2.210129223632812,0.6837373046874999,-0.07461832061068707,0.24492748091603067,-0.06533206106870237,0
16165,-11.81185177001953,-2.198158215332031,0.7483807495117186,-0.09751908396946563,0.2678282442748092,-0.19510305343511447,0
16190,-11.749602526855469,-2.1406973754882808,0.769928564453125,-0.04408396946564885,0.14569083969465657,-0.17220229007633592,0
16215,-11.740025720214842,-2.1287263671875,0.7172561279296874,-0.06698473282442752,0.29836259541984744,-0.1569351145038168,0
16240,-11.761573535156248,-2.1694277954101557,0.8202067993164062,-0.11278625954198473,0.3517977099236642,-0.05769847328244282,0
16265,-11.783121350097655,-2.138303173828125,0.7316213378906249,0.009351145038167918,0.31362977099236655,-0.08823282442748093,0
16290,-11.838187988281248,-2.1311205688476558,0.7579575561523437,-0.08225190839694663,0.13042366412213746,-0.10350000000000004,0
16315,-11.785515551757811,-2.2436480468749997,0.7459865478515624,0.06278625954198469,0.16859160305343512,-0.21037022900763358,0
16340,-11.763967736816404,-2.152668383789062,0.6765546997070312,-0.22729007633587783,0.38233206106870243,-0.13403435114503826,0
16365,-11.737631518554686,-2.162245190429687,0.7818995727539062,0.13148854961832057,0.10752290076335891,-0.2256374045801527,0
16390,-11.804669165039062,-2.171821997070312,0.7459865478515624,0.0017175572519083637,0.2220267175572519,-0.23327099236641236,0
16415,-11.763967736816404,-2.1837930053710934,0.789082177734375,0.21545801526717556,0.18385877862595423,-0.0271641221374046,0
16441,-11.790303955078123,-2.181398803710937,0.7388039428710936,-0.05171755725190841,0.06172137404580158,-0.17220229007633592,0
16466,-11.72326630859375,-2.171821997070312,0.77950537109375,-0.0364503816793893,0.1914923664122139,-0.004263358778625936,0
16491,-11.766361938476564,-2.1311205688476558,0.7052851196289062,-0.07461832061068707,0.35943129770992366,-0.18746946564885503,0
16516,-11.756785131835937,-2.190975610351562,0.6765546997070312,0.03225190839694653,0.15332442748091624,-0.11876717557251915,0
16541,-11.783121350097655,-2.133514770507812,0.7220445312499999,-0.005916030534351191,0.1914923664122139,-0.11113358778625948,0
16566,-11.725660510253906,-2.1742161987304685,0.7771111694335937,0.016984732824427473,0.32889694656488566,-0.1569351145038168,0
16591,-11.742419921875001,-2.1263321655273435,0.7627459594726562,-0.1509541984732825,0.16859160305343512,-0.14930152671755736,0
16616,-11.747208325195313,-2.207735021972656,0.7316213378906249,0.11622137404580152,0.0922557251908398,-0.1569351145038168,0
16641,-11.725660510253906,-2.152668383789062,0.7340155395507811,0.009351145038167918,0.03118702290076336,-0.10350000000000004,0
16666,-11.749602526855469,-2.119149560546875,0.6957083129882812,-0.0364503816793893,0.13805725190839713,-0.2256374045801527,0
16691,-11.737631518554686,-2.176610400390625,0.7818995727539062,0.1849236641221374,0.18385877862595423,-0.13403435114503826,0
16716,-11.778332946777343,-2.133514770507812,0.7076793212890624,-0.1662213740458015,0.11515648854961835,-0.011896946564885491,0
16741,-11.759179333496093,-2.236465441894531,0.674160498046875,-0.05935114503816796,0.15332442748091624,-0.14930152671755736,0
16766,-11.756785131835937,-2.157456787109375,0.7196503295898437,-0.08225190839694663,-0.12148473282442729,-0.11113358778625948,0
16791,-11.737631518554686,-2.171821997070312,0.7531691528320312,-0.09751908396946563,0.03118702290076336,-0.13403435114503826,0
16817,-11.785515551757811,-2.1598509887695307,0.7316213378906249,0.0017175572519083637,0.18385877862595423,0.049171755725190835,0
16842,-11.747208325195313,-2.1837930053710934,0.7723227661132812,-0.11278625954198473,0.2678282442748092,-0.1569351145038168,0
16867,-11.771150341796876,-2.10957275390625,0.8680908325195311,0.12385496183206107,0.12279007633587802,-0.11876717557251915,0
16892,-11.771150341796876,-2.2029466186523434,0.7196503295898437,-0.04408396946564885,0.24492748091603067,-0.08823282442748093,0
16917,-11.785515551757811,-2.181398803710937,0.7723227661132812,-0.1356870229007634,0.22966030534351156,-0.1264007633587786,0
16942,-11.792698156738282,-2.104784350585937,0.7771111694335937,-0.04408396946564885,0.29836259541984744,-0.14930152671755736,0
16967,-11.773544543457032,-2.2316770385742184,0.7986589843749999,-0.028816793893129744,0.3517977099236642,-0.13403435114503826,0
16992,-11.792698156738282,-2.190975610351562,0.7627459594726562,-0.08988549618320618,0.12279007633587802,-0.10350000000000004,0
17017,-11.785515551757811,-2.1359089721679685,0.7675343627929687,0.0017175572519083637,0.14569083969465657,-0.18746946564885503,0
17042,-11.773544543457032,-2.1406973754882808,0.7052851196289062,-0.0364503816793893,0.04645419847328247,-0.17220229007633592,0
17067,-11.773544543457032,-2.2029466186523434,0.7651401611328125,-0.09751908396946563,0.3517977099236642,-0.16456870229007647,0
17092,-11.761573535156248,-2.1694277954101557,0.7483807495117186,0.009351145038167918,0.41286641221374065,-0.1416679389312977,0
17117,-11.732843115234374,-2.1311205688476558,0.7316213378906249,0.03225190839694653,0.2601946564885498,-0.11113358778625948,0
17142,-11.747208325195313,-2.123937963867187,0.6813431030273437,0.0017175572519083637,0.21439312977099245,-0.2256374045801527,0
17167,-11.775938745117188,-2.1790046020507807,0.7268329345703124,-0.07461832061068707,0.29836259541984744,-0.11876717557251915,0
17193,-11.747208325195313,-2.171821997070312,0.7771111694335937,-0.021183206106870245,0.4510343511450383,-0.2561717557251909,0
17218,-11.785515551757811,-2.1646393920898435,0.769928564453125,0.047519083969465636,0.2907290076335878,-0.24853816793893124,0
17243,-11.749602526855469,-2.10957275390625,0.6789489013671874,0.016984732824427473,0.09988931297709924,-0.06533206106870237,0
17268,-11.763967736816404,-2.207735021972656,0.7771111694335937,-0.0364503816793893,0.10752290076335891,-0.2561717557251909,0
17293,-11.838187988281248,-2.1598509887695307,0.7866879760742187,-0.028816793893129744,0.2220267175572519,-0.11876717557251915,0
17318,-11.809457568359374,-2.1790046020507807,0.7388039428710936,-0.12041984732824429,0.09988931297709924,-0.05769847328244282,0
17343,-11.730448913574218,-2.119149560546875,0.7244387329101561,0.10858778625954196,0.2220267175572519,-0.09586641221374048,0
17368,-11.73523731689453,-2.1790046020507807,0.77950537109375,0.009351145038167918,0.2525610687022901,-0.1569351145038168,0
17393,-11.809457568359374,-2.1359089721679685,0.66458369140625,-0.028816793893129744,0.3059961832061069,-0.24853816793893124,0
17418,-11.725660510253906,-2.143091577148437,0.7172561279296874,-0.08988549618320618,0.5960725190839695,-0.11113358778625948,0
17443,-11.76875614013672,-2.162245190429687,0.7962647827148437,0.10095419847328241,0.15332442748091624,-0.11113358778625948,0
17468,-11.783121350097655,-2.1742161987304685,0.7723227661132812,-0.021183206106870245,0.023553435114503918,-0.10350000000000004,0
17493,-11.7807271484375,-2.226888635253906,0.7651401611328125,0.03988549618320608,0.008286259541984808,-0.2409045801526718,0
17518,-11.737631518554686,-2.1742161987304685,0.6574010864257812,0.07041984732824424,0.10752290076335891,-0.09586641221374048,0
17543,-11.744814123535157,-2.1502741821289058,0.7675343627929687,-0.005916030534351191,0.2525610687022901,-0.27143893129771,0
17568,-11.790303955078123,-2.1885814086914057,0.7555633544921875,0.03988549618320608,0.0006526717557253647,0.02627099236641217,0
17594,-11.75439093017578,-2.2221002319335934,0.6717662963867187,0.03225190839694653,0.1762251908396948,-0.1416679389312977,0
17619,-11.761573535156248,-2.1694277954101557,0.789082177734375,-0.028816793893129744,0.13805725190839713,-0.10350000000000004,0
17644,-11.792698156738282,-2.2244944335937498,0.7292271362304686,-0.14332061068702295,0.405232824427481,-0.10350000000000004,0
17669,-11.763967736816404,-2.176610400390625,0.7172561279296874,0.047519083969465636,0.3670648854961833,-0.09586641221374048,0
17694,-11.795092358398438,-2.157456787109375,0.8202067993164062,0.024618320610687028,0.13042366412213746,-0.21037022900763358,0
17719,-11.823822778320313,-2.190975610351562,0.7723227661132812,0.07041984732824424,0.09988931297709924,-0.050064885496183265,0
17744,-11.761573535156248,-2.18618720703125,0.6574010864257812,-0.0364503816793893,0.10752290076335891,-0.3172404580152671,0
17769,-11.761573535156248,-2.133514770507812,0.7364097412109374,-0.028816793893129744,0.3517977099236642,-0.0271641221374046,0
17794,-11.778332946777343,-2.2316770385742184,0.7220445312499999,0.047519083969465636,0.13805725190839713,-0.08823282442748093,0
17819,-11.7041126953125,-2.2221002319335934,0.7818995727539062,0.13148854961832057,0.38233206106870243,-0.019530534351145046,0
17844,-11.823822778320313,-2.217311828613281,0.7842937744140625,0.03988549618320608,0.29836259541984744,-0.21037022900763358,0
17869,-11.7807271484375,-2.219706030273437,0.8345720092773437,-0.0364503816793893,0.31362977099236655,-0.10350000000000004,0
17894,-11.737631518554686,-2.210129223632812,0.7100735229492187,0.009351145038167918,0.206759541984733,-0.17220229007633592,0
17919,-11.761573535156248,-2.111966955566406,0.7914763793945312,-0.17385496183206106,0.14569083969465657,-0.07296564885496182,0
17945,-11.787909753417967,-2.1287263671875,0.77950537109375,0.03988549618320608,0.3059961832061069,-0.17983587786259536,0
17970,-11.756785131835937,-2.176610400390625,0.7028909179687499,0.0017175572519083637,0.3365305343511451,-0.21800381679389325,0
17995,-11.699324291992188,-2.162245190429687,0.655006884765625,0.016984732824427473,0.2907290076335878,-0.14930152671755736,0
18020,-11.766361938476564,-2.1598509887695307,0.7220445312499999,-0.05171755725190841,0.28309541984732833,-0.011896946564885491,0
18045,-11.795092358398438,-2.1287263671875,0.6837373046874999,-0.06698473282442752,0.4205000000000001,-0.11113358778625948,0
18070,-11.807063366699218,-2.14787998046875,0.7100735229492187,-0.06698473282442752,0.405232824427481,-0.18746946564885503,0
18095,-11.79988076171875,-2.1359089721679685,0.8058415893554687,-0.08225190839694663,0.07698854961832069,-0.17220229007633592,0
18120,-11.716083703613283,-2.1598509887695307,0.6813431030273437,-0.021183206106870245,0.29836259541984744,-0.019530534351145046,0
18145,-11.756785131835937,-2.190975610351562,0.7124677246093749,-0.08988549618320618,0.023553435114503918,-0.0271641221374046,0
18170,-11.756785131835937,-2.16703359375,0.7316213378906249,0.10858778625954196,0.2678282442748092,-0.09586641221374048,0
18195,-11.790303955078123,-2.1167553588867185,0.7747169677734375,-0.05171755725190841,0.32889694656488566,-0.18746946564885503,0
18220,-11.797486560058594,-2.1406973754882808,0.7340155395507811,-0.06698473282442752,0.19912595419847334,-0.09586641221374048,0
18245,-11.749602526855469,-2.133514770507812,0.7842937744140625,-0.18912213740458017,0.24492748091603067,-0.3096068702290077,0
18270,-11.766361938476564,-2.073659729003906,0.7340155395507811,0.06278625954198469,0.3899656488549619,-0.21037022900763358,0
18295,-11.804669165039062,-2.138303173828125,0.6406416748046875,-0.09751908396946563,0.3365305343511451,0.0033702290076335073,0
18320,-11.787909753417967,-2.190975610351562,0.6574010864257812,-0.05935114503816796,0.1914923664122139,-0.14930152671755736,0
18346,-11.79988076171875,-2.1694277954101557,0.7411981445312499,0.10858778625954196,0.21439312977099245,-0.050064885496183265,0
18371,-11.785515551757811,-2.119149560546875,0.7627459594726562,0.06278625954198469,-0.07568320610687018,-0.18746946564885503,0
18396,-11.737631518554686,-2.138303173828125,0.7459865478515624,0.024618320610687028,0.13042366412213746,-0.1264007633587786,0
18421,-11.761573535156248,-2.111966955566406,0.7651401611328125,0.10095419847328241,0.37469847328244277,-0.019530534351145046,0
18446,-11.763967736816404,-2.152668383789062,0.7388039428710936,0.06278625954198469,0.2220267175572519,0.018637404580152617,0
18471,-11.778332946777343,-2.133514770507812,0.6789489013671874,0.0017175572519083637,0.1914923664122139,-0.27143893129771,0
18496,-11.809457568359374,-2.1742161987304685,0.7364097412109374,-0.05935114503816796,0.35943129770992366,0.04153816793893128,0
18521,-11.756785131835937,-2.1933698120117184,0.7268329345703124,0.0780534351145038,0.405232824427481,-0.1416679389312977,0
18546,-11.826216979980469,-2.200552416992187,0.7771111694335937,-0.17385496183206106,0.1914923664122139,-0.27907251908396946,0
18571,-11.802274963378906,-2.200552416992187,0.6502184814453125,-0.08225190839694663,0.32889694656488566,-0.11876717557251915,0
18596,-11.785515551757811,-2.152668383789062,0.7555633544921875,0.07041984732824424,0.18385877862595423,-0.16456870229007647,0
18621,-11.823822778320313,-2.176610400390625,0.7004967163085937,0.009351145038167918,0.0922557251908398,-0.08823282442748093,0
18646,-11.807063366699218,-2.1885814086914057,0.7148619262695312,-0.17385496183206106,0.0006526717557253647,-0.05769847328244282,0
18671,-11.72326630859375,-2.1694277954101557,0.7196503295898437,0.0017175572519083637,0.3365305343511451,-0.1416679389312977,0
18696,-11.711295300292967,-2.1287263671875,0.6861315063476562,-0.06698473282442752,0.1762251908396948,-0.2256374045801527,0
18721,-11.785515551757811,-2.181398803710937,0.7220445312499999,-0.021183206106870245,0.14569083969465657,-0.24853816793893124,0
18747,-11.81185177001953,-2.1502741821289058,0.7627459594726562,-0.05171755725190841,0.08462213740458036,-0.2256374045801527,0
18772,-11.730448913574218,-2.1790046020507807,0.8273894042968749,0.024618320610687028,0.237293893129771,-0.11876717557251915,0
18797,-11.797486560058594,-2.16703359375,0.7100735229492187,-0.04408396946564885,0.31362977099236655,-0.1264007633587786,0
18822,-11.742419921875001,-2.1646393920898435,0.7723227661132812,-0.08225190839694663,0.3670648854961833,-0.019530534351145046,0
18847,-11.787909753417967,-2.1311205688476558,0.7268329345703124,-0.05935114503816796,0.2678282442748092,-0.13403435114503826,0
18872,-11.730448913574218,-2.1694277954101557,0.7148619262695312,0.10095419847328241,0.3059961832061069,-0.10350000000000004,0
18897,-11.771150341796876,-2.073659729003906,0.8273894042968749,-0.021183206106870245,0.35943129770992366,-0.08059923664122137,0
18922,-11.7807271484375,-2.1885814086914057,0.7986589843749999,0.0780534351145038,0.24492748091603067,-0.16456870229007647,0
18947,-11.795092358398438,-2.162245190429687,0.674160498046875,-0.01354961832061069,0.18385877862595423,-0.14930152671755736,0
18972,-11.761573535156248,-2.1167553588867185,0.7388039428710936,-0.08988549618320618,0.16859160305343512,-0.2409045801526718,0
18997,-11.809457568359374,-2.114361157226562,0.7124677246093749,0.0017175572519083637,0.10752290076335891,-0.21037022900763358,0
19022,-11.787909753417967,-2.190975610351562,0.6813431030273437,-0.028816793893129744,0.206759541984733,-0.11876717557251915,0
19047,-11.740025720214842,-2.2029466186523434,0.7938705810546874,-0.005916030534351191,0.24492748091603067,0.0033702290076335073,0
19072,-11.773544543457032,-2.1359089721679685,0.7196503295898437,0.009351145038167918,0.10752290076335891,-0.20273664122137414,0
19097,-11.821428576660157,-2.10957275390625,0.7316213378906249,0.024618320610687028,0.28309541984732833,-0.050064885496183265,0
19122,-11.821428576660157,-2.1837930053710934,0.8369662109374999,-0.07461832061068707,0.31362977099236655,-0.06533206106870237,0
19148,-11.864524206542967,-2.1646393920898435,0.8082357910156249,-0.11278625954198473,0.015919847328244474,-0.17983587786259536,0
19173,-11.749602526855469,-2.2244944335937498,0.7627459594726562,-0.08988549618320618,0.1762251908396948,-0.11113358778625948,0
19198,-11.72326630859375,-2.2244944335937498,0.7842937744140625,-0.08988549618320618,0.1914923664122139,-0.019530534351145046,0
19223,-11.795092358398438,-2.143091577148437,0.7316213378906249,0.13148854961832057,0.1762251908396948,-0.06533206106870237,0
19248,-11.787909753417967,-2.114361157226562,0.7292271362304686,0.14675572519083968,0.1762251908396948,-0.13403435114503826,0
19273,-11.83100538330078,-2.1287263671875,0.7220445312499999,-0.06698473282442752,0.12279007633587802,-0.19510305343511447,0
19298,-11.766361938476564,-2.157456787109375,0.7196503295898437,0.0017175572519083637,0.2907290076335878,-0.09586641221374048,0
19323,-11.847764794921876,-2.14787998046875,0.7747169677734375,-0.11278625954198473,0.18385877862595423,-0.1264007633587786,0
19348,-11.814245971679686,-2.14787998046875,0.6837373046874999,0.024618320610687028,0.22966030534351156,-0.11876717557251915,0
19373,-11.775938745117188,-2.111966955566406,0.7435923461914061,0.05515267175572519,0.08462213740458036,-0.16456870229007647,0
19398,-11.787909753417967,-2.152668383789062,0.8178125976562499,0.06278625954198469,0.06935496183206125,-0.14930152671755736,0
19423,-11.778332946777343,-2.119149560546875,0.6693720947265624,-0.08225190839694663,0.22966030534351156,-0.20273664122137414,0
19448,-11.814245971679686,-2.176610400390625,0.7411981445312499,0.009351145038167918,0.023553435114503918,-0.1416679389312977,0
19473,-11.778332946777343,-2.2029466186523434,0.7842937744140625,-0.021183206106870245,0.21439312977099245,-0.16456870229007647,0
19498,-11.75439093017578,-2.119149560546875,0.6574010864257812,-0.24255725190839694,0.1914923664122139,-0.17220229007633592,0
19523,-11.744814123535157,-2.152668383789062,0.7411981445312499,-0.09751908396946563,0.16095801526717568,-0.034797709923664155,0
19548,-11.809457568359374,-2.219706030273437,0.7388039428710936,0.024618320610687028,0.10752290076335891,-0.18746946564885503,0
19574,-11.775938745117188,-2.152668383789062,0.7340155395507811,0.08568702290076335,0.16859160305343512,-0.1264007633587786,0
19599,-11.821428576660157,-2.1406973754882808,0.7076793212890624,-0.07461832061068707,0.1762251908396948,-0.14930152671755736,0
19624,-11.728054711914062,-2.195764013671875,0.7603517578125,0.0017175572519083637,0.1762251908396948,-0.1569351145038168,0
19649,-11.783121350097655,-2.0880249389648435,0.7411981445312499,-0.05171755725190841,0.14569083969465657,0.05680534351145039,0
19674,-11.783121350097655,-2.176610400390625,0.6957083129882812,-0.09751908396946563,0.37469847328244277,-0.1264007633587786,0
19699,-11.725660510253906,-2.143091577148437,0.7364097412109374,0.16202290076335873,0.03118702290076336,-0.07296564885496182,0
19724,-11.742419921875001,-2.157456787109375,0.7292271362304686,0.047519083969465636,0.31362977099236655,-0.2409045801526718,0
19749,-11.819034375000001,-2.176610400390625,0.7364097412109374,0.0017175572519083637,0.2525610687022901,-0.09586641221374048,0
19774,-11.737631518554686,-2.1694277954101557,0.7124677246093749,0.03225190839694653,0.3899656488549619,-0.09586641221374048,0
19799,-11.763967736816404,-2.1071785522460935,0.7411981445312499,0.16202290076335873,0.28309541984732833,-0.1569351145038168,0
19824,-11.773544543457032,-2.2244944335937498,0.7052851196289062,-0.06698473282442752,0.2220267175572519,-0.17220229007633592,0
19849,-11.699324291992188,-2.1933698120117184,0.7316213378906249,0.17729007633587784,0.14569083969465657,-0.050064885496183265,0
19874,-11.814245971679686,-2.1502741821289058,0.7124677246093749,0.009351145038167918,0.07698854961832069,-0.21037022900763358,0
19899,-11.75439093017578,-2.119149560546875,0.8441488159179686,-0.05935114503816796,0.03118702290076336,-0.16456870229007647,0
19924,-11.823822778320313,-2.1311205688476558,0.7292271362304686,0.07041984732824424,0.37469847328244277,-0.19510305343511447,0
19949,-11.76875614013672,-2.171821997070312,0.7268329345703124,0.047519083969465636,0.24492748091603067,-0.13403435114503826,0
19975,-11.771150341796876,-2.1646393920898435,0.7603517578125,0.047519083969465636,0.14569083969465657,-0.1264007633587786,0
20000,-11.785515551757811,-2.152668383789062,0.77950537109375,0.03988549618320608,0.16095801526717568,-0.09586641221374048,0
20025,-11.72326630859375,-2.123937963867187,0.7938705810546874,0.016984732824427473,0.3365305343511451,-0.09586641221374048,0
20050,-11.75439093017578,-2.1790046020507807,0.7603517578125,-0.05935114503816796,0.42813358778625965,-0.09586641221374048,0
20075,-11.819034375000001,-2.1287263671875,0.8417546142578124,-0.01354961832061069,0.2907290076335878,-0.1264007633587786,0
20100,-11.76875614013672,-2.1694277954101557,0.7148619262695312,-0.08988549618320618,0.16095801526717568,-0.08059923664122137,0
20125,-11.771150341796876,-2.2029466186523434,0.7244387329101561,0.16202290076335873,0.2601946564885498,-0.06533206106870237,0
20150,-11.756785131835937,-2.1598509887695307,0.6933141113281249,-0.05935114503816796,0.2678282442748092,-0.16456870229007647,0
20175,-11.79988076171875,-2.1454857788085935,0.789082177734375,-0.2501908396946565,0.3365305343511451,-0.21037022900763358,0
20200,-11.759179333496093,-2.198158215332031,0.7723227661132812,-0.01354961832061069,0.321263358778626,-0.10350000000000004,0
20225,-11.790303955078123,-2.1885814086914057,0.674160498046875,0.03988549618320608,0.10752290076335891,-0.04243129770992371,0
20250,-11.747208325195313,-2.1837930053710934,0.7651401611328125,0.024618320610687028,0.04645419847328247,-0.1569351145038168,0
20275,-11.763967736816404,-2.1167553588867185,0.7340155395507811,-0.05171755725190841,0.35943129770992366,-0.11876717557251915,0
20300,-11.778332946777343,-2.1694277954101557,0.7675343627929687,0.03988549618320608,0.3059961832061069,-0.14930152671755736,0
20325,-11.732843115234374,-2.1837930053710934,0.7483807495117186,0.047519083969465636,0.1914923664122139,-0.1416679389312977,0
20350,-11.69214168701172,-2.171821997070312,0.769928564453125,0.07041984732824424,0.1914923664122139,-0.06533206106870237,0
20376,-11.749602526855469,-2.143091577148437,0.7579575561523437,0.08568702290076335,0.2907290076335878,-0.34777480916030534,0
20401,-11.756785131835937,-2.119149560546875,0.7986589843749999,-0.021183206106870245,0.32889694656488566,-0.29433969465648857,0
20426,-11.802274963378906,-2.229282836914062,0.7483807495117186,-0.24255725190839694,0.2601946564885498,-0.04243129770992371,0
20451,-11.83100538330078,-2.171821997070312,0.7411981445312499,-0.021183206106870245,0.24492748091603067,-0.3172404580152671,0
20476,-11.684959082031249,-2.1287263671875,0.789082177734375,-0.09751908396946563,0.11515648854961835,-0.18746946564885503,0
20501,-11.850158996582032,-2.1598509887695307,0.7818995727539062,-0.005916030534351191,0.29836259541984744,-0.18746946564885503,0
20526,-11.7807271484375,-2.18618720703125,0.7962647827148437,0.06278625954198469,0.4357671755725192,-0.019530534351145046,0
20551,-11.747208325195313,-2.1502741821289058,0.7196503295898437,-0.0364503816793893,0.21439312977099245,-0.1416679389312977,0
20576,-11.708901098632811,-2.138303173828125,0.7196503295898437,0.0017175572519083637,0.237293893129771,-0.2409045801526718,0
20601,-11.696930090332032,-2.1502741821289058,0.6933141113281249,-0.0364503816793893,0.1914923664122139,-0.011896946564885491,0
20626,-11.773544543457032,-2.1502741821289058,0.7938705810546874,-0.11278625954198473,0.3365305343511451,-0.050064885496183265,0
20651,-11.737631518554686,-2.200552416992187,0.674160498046875,-0.08225190839694663,0.41286641221374065,-0.17220229007633592,0
20676,-11.778332946777343,-2.176610400390625,0.769928564453125,-0.021183206106870245,0.35943129770992366,-0.21800381679389325,0
20701,-11.684959082031249,-2.18618720703125,0.7388039428710936,0.03988549618320608,0.04645419847328247,-0.23327099236641236,0
20726,-11.842976391601564,-2.226888635253906,0.7388039428710936,-0.05935114503816796,0.0006526717557253647,0.018637404580152617,0
20751,-11.771150341796876,-2.1646393920898435,0.7148619262695312,-0.04408396946564885,0.2601946564885498,0.02627099236641217,0
20776,-11.763967736816404,-2.1311205688476558,0.769928564453125,-0.10515267175572518,0.15332442748091624,-0.08823282442748093,0
20802,-11.742419921875001,-2.143091577148437,0.7723227661132812,-0.01354961832061069,0.2678282442748092,-0.14930152671755736,0
20827,-11.7807271484375,-2.1263321655273435,0.7675343627929687,0.016984732824427473,0.22966030534351156,-0.011896946564885491,0
20852,-11.773544543457032,-2.14787998046875,0.6813431030273437,0.009351145038167918,0.42813358778625965,-0.1416679389312977,0
20877,-11.744814123535157,-2.219706030273437,0.7028909179687499,-0.01354961832061069,0.2525610687022901,-0.10350000000000004,0
20902,-11.716083703613283,-2.1406973754882808,0.7555633544921875,0.03225190839694653,0.405232824427481,-0.07296564885496182,0
20927,-11.756785131835937,-2.207735021972656,0.7364097412109374,-0.06698473282442752,0.3517977099236642,-0.10350000000000004,0
20952,-11.773544543457032,-2.18618720703125,0.6574010864257812,-0.10515267175572518,0.18385877862595423,-0.13403435114503826,0
20977,-11.761573535156248,-2.1790046020507807,0.7866879760742187,0.009351145038167918,0.21439312977099245,-0.13403435114503826,0
21002,-11.732843115234374,-2.1550625854492185,0.7483807495117186,-0.12805343511450384,0.2220267175572519,-0.05769847328244282,0
21027,-11.76875614013672,-2.190975610351562,0.7531691528320312,0.009351145038167918,0.19912595419847334,-0.17220229007633592,0
21052,-11.79988076171875,-2.119149560546875,0.6478242797851562,0.10858778625954196,0.206759541984733,-0.11113358778625948,0
21077,-11.718477905273438,-2.1694277954101557,0.6765546997070312,-0.04408396946564885,0.12279007633587802,0.018637404580152617,0
21102,-11.771150341796876,-2.16703359375,0.7268329345703124,0.05515267175572519,0.16859160305343512,-0.07296564885496182,0
21127,-11.787909753417967,-2.14787998046875,0.7866879760742187,-0.06698473282442752,0.2907290076335878,-0.11876717557251915,0
21152,-11.795092358398438,-2.18618720703125,0.789082177734375,-0.11278625954198473,0.2754618320610689,-0.1416679389312977,0
21177,-11.76875614013672,-2.207735021972656,0.7723227661132812,-0.09751908396946563,0.39759923664122154,-0.19510305343511447,0
21203,-11.771150341796876,-2.1646393920898435,0.7172561279296874,-0.06698473282442752,0.2678282442748092,-0.27143893129771,0
21228,-11.833399584960937,-2.157456787109375,0.6981025146484374,-0.12041984732824429,0.237293893129771,-0.19510305343511447,0
21253,-11.766361938476564,-2.1837930053710934,0.7172561279296874,0.047519083969465636,0.11515648854961835,-0.11113358778625948,0
21278,-11.761573535156248,-2.2532248535156247,0.7507749511718749,-0.11278625954198473,-0.02224809160305341,-0.07296564885496182,0
21303,-11.751996728515625,-2.198158215332031,0.7483807495117186,-0.07461832061068707,0.14569083969465657,-0.2256374045801527,0
21328,-11.785515551757811,-2.18618720703125,0.8130241943359374,-0.021183206106870245,0.24492748091603067,-0.11113358778625948,0
21353,-11.747208325195313,-2.056900317382812,0.7124677246093749,0.016984732824427473,0.28309541984732833,-0.019530534351145046,0
21378,-11.708901098632811,-2.1311205688476558,0.7268329345703124,-0.021183206106870245,0.28309541984732833,-0.11113358778625948,0
21403,-11.756785131835937,-2.1454857788085935,0.645430078125,-0.028816793893129744,0.4205000000000001,-0.050064885496183265,0
21428,-11.713689501953123,-2.14787998046875,0.7842937744140625,0.0780534351145038,0.2601946564885498,-0.10350000000000004,0
21453,-11.713689501953123,-2.200552416992187,0.8345720092773437,-0.07461832061068707,0.0922557251908398,-0.05769847328244282,0
21478,-11.759179333496093,-2.207735021972656,0.7100735229492187,-0.021183206106870245,0.0922557251908398,-0.16456870229007647,0
21503,-11.83100538330078,-2.207735021972656,0.7148619262695312,0.06278625954198469,0.2220267175572519,-0.08823282442748093,0
21528,-11.792698156738282,-2.14787998046875,0.7483807495117186,-0.0364503816793893,0.15332442748091624,-0.05769847328244282,0
21554,-11.744814123535157,-2.2436480468749997,0.7388039428710936,0.03988549618320608,0.05408778625954214,-0.09586641221374048,0
21579,-11.756785131835937,-2.133514770507812,0.6957083129882812,-0.005916030534351191,0.405232824427481,-0.17220229007633592,0
21604,-11.778332946777343,-2.2149176269531248,0.6957083129882812,-0.15858778625954195,0.2601946564885498,-0.19510305343511447,0
21629,-11.775938745117188,-2.1311205688476558,0.7292271362304686,-0.12805343511450384,0.489202290076336,-0.17220229007633592,0
21654,-11.716083703613283,-2.219706030273437,0.9016096557617187,-0.07461832061068707,0.34416412213740477,-0.14930152671755736,0
21679,-11.766361938476564,-2.1406973754882808,0.7220445312499999,0.03988549618320608,0.04645419847328247,-0.05769847328244282,0
21704,-11.802274963378906,-2.1885814086914057,0.8752734375,-0.08988549618320618,0.2601946564885498,-0.14930152671755736,0
21729,-11.83100538330078,-2.1167553588867185,0.7435923461914061,-0.14332061068702295,0.2678282442748092,-0.24853816793893124,0
21754,-11.778332946777343,-2.171821997070312,0.7771111694335937,-0.2196564885496184,0.09988931297709924,-0.050064885496183265,0
21779,-11.761573535156248,-2.14787998046875,0.6981025146484374,0.10095419847328241,0.38233206106870243,-0.27907251908396946,0
21804,-11.76875614013672,-2.1933698120117184,0.7292271362304686,-0.1662213740458015,0.2907290076335878,-0.1416679389312977,0
21829,-11.749602526855469,-2.1742161987304685,0.7172561279296874,-0.05935114503816796,0.206759541984733,-0.26380534351145035,0
21854,-11.785515551757811,-2.1454857788085935,0.7340155395507811,0.009351145038167918,0.39759923664122154,-0.06533206106870237,0
21879,-11.790303955078123,-2.1406973754882808,0.66458369140625,0.07041984732824424,0.2525610687022901,-0.17220229007633592,0
21904,-11.821428576660157,-2.2221002319335934,0.7268329345703124,-0.14332061068702295,0.35943129770992366,-0.1264007633587786,0
21929,-11.749602526855469,-2.1742161987304685,0.7411981445312499,-0.12805343511450384,0.13805725190839713,-0.2256374045801527,0
21954,-11.756785131835937,-2.10957275390625,0.7148619262695312,-0.06698473282442752,0.15332442748091624,-0.11113358778625948,0
21980,-11.838187988281248,-2.1263321655273435,0.7028909179687499,0.23072519083969464,0.29836259541984744,-0.011896946564885491,0
22005,-11.833399584960937,-2.219706030273437,0.7555633544921875,0.047519083969465636,0.237293893129771,-0.08823282442748093,0
22030,-11.737631518554686,-2.1071785522460935,0.7076793212890624,0.03225190839694653,0.2754618320610689,-0.13403435114503826,0
22055,-11.775938745117188,-2.119149560546875,0.789082177734375,-0.08988549618320618,0.13042366412213746,-0.17220229007633592,0
22080,-11.730448913574218,-2.152668383789062,0.7244387329101561,-0.09751908396946563,0.29836259541984744,-0.0271641221374046,0
22105,-11.807063366699218,-2.181398803710937,0.7411981445312499,-0.10515267175572518,0.0922557251908398,-0.1569351145038168,0
22130,-11.749602526855469,-2.14787998046875,0.789082177734375,-0.12805343511450384,0.13042366412213746,-0.050064885496183265,0
22155,-11.747208325195313,-2.1742161987304685,0.7028909179687499,-0.15858778625954195,0.2601946564885498,-0.07296564885496182,0
22180,-11.821428576660157,-2.123937963867187,0.6885257080078124,0.08568702290076335,0.32889694656488566,-0.0271641221374046,0
22205,-11.862130004882811,-2.138303173828125,0.7052851196289062,0.13148854961832057,0.37469847328244277,-0.05769847328244282,0
22230,-11.711295300292967,-2.090419140625,0.6789489013671874,0.0780534351145038,0.206759541984733,-0.08059923664122137,0
22255,-11.763967736816404,-2.1646393920898435,0.7483807495117186,0.06278625954198469,0.21439312977099245,-0.17220229007633592,0
22280,-11.804669165039062,-2.1287263671875,0.6909199096679687,-0.005916030534351191,0.13805725190839713,-0.17220229007633592,0
22305,-11.787909753417967,-2.1742161987304685,0.7316213378906249,-0.12041984732824429,0.2525610687022901,-0.18746946564885503,0
22330,-11.804669165039062,-2.1694277954101557,0.7507749511718749,-0.01354961832061069,0.2907290076335878,-0.1569351145038168,0
22356,-11.744814123535157,-2.210129223632812,0.7962647827148437,0.14675572519083968,0.3670648854961833,-0.1264007633587786,0
22381,-11.785515551757811,-2.1359089721679685,0.7555633544921875,-0.005916030534351191,0.1914923664122139,-0.16456870229007647,0
22406,-11.732843115234374,-2.1742161987304685,0.7316213378906249,-0.05171755725190841,0.03882061068702303,-0.11876717557251915,0
22431,-11.696930090332032,-2.1311205688476558,0.7435923461914061,-0.19675572519083973,0.22966030534351156,-0.17220229007633592,0
22456,-11.807063366699218,-2.090419140625,0.6957083129882812,-0.09751908396946563,0.35943129770992366,-0.004263358778625936,0
22481,-11.81185177001953,-2.1550625854492185,0.7220445312499999,-0.07461832061068707,0.2754618320610689,-0.19510305343511447,0
22506,-11.766361938476564,-2.152668383789062,0.7507749511718749,0.15438931297709924,0.07698854961832069,-0.04243129770992371,0
22531,-11.718477905273438,-2.1311205688476558,0.7292271362304686,0.03988549618320608,0.1762251908396948,-0.11113358778625948,0
22556,-11.749602526855469,-2.102390148925781,0.7172561279296874,-0.12041984732824429,0.22966030534351156,-0.004263358778625936,0
22581,-11.766361938476564,-2.162245190429687,0.7124677246093749,0.024618320610687028,0.12279007633587802,-0.1264007633587786,0
22606,-11.790303955078123,-2.1790046020507807,0.7388039428710936,-0.18912213740458017,0.18385877862595423,-0.13403435114503826,0
22631,-11.816640173339842,-2.18618720703125,0.7483807495117186,-0.10515267175572518,0.41286641221374065,-0.1264007633587786,0
22656,-11.773544543457032,-2.121543762207031,0.7842937744140625,0.016984732824427473,0.3059961832061069,-0.18746946564885503,0
22681,-11.783121350097655,-2.1550625854492185,0.7316213378906249,-0.028816793893129744,0.3059961832061069,-0.19510305343511447,0
22706,-11.804669165039062,-2.119149560546875,0.7603517578125,0.13148854961832057,0.21439312977099245,-0.17983587786259536,0
22731,-11.756785131835937,-2.176610400390625,0.6909199096679687,-0.021183206106870245,0.2678282442748092,-0.0271641221374046,0
22756,-11.7807271484375,-2.1406973754882808,0.7148619262695312,0.009351145038167918,-0.03751526717557252,-0.3248740458015268,0
22782,-11.728054711914062,-2.157456787109375,0.7986589843749999,0.08568702290076335,0.2220267175572519,-0.034797709923664155,0
22807,-11.819034375000001,-2.1837930053710934,0.7435923461914061,-0.01354961832061069,0.34416412213740477,-0.0271641221374046,0
22832,-11.75439093017578,-2.157456787109375,0.6909199096679687,-0.0364503816793893,0.2678282442748092,-0.06533206106870237,0
22857,-11.720872106933594,-2.1263321655273435,0.7364097412109374,-0.1356870229007634,0.2754618320610689,-0.16456870229007647,0
22882,-11.771150341796876,-2.123937963867187,0.7435923461914061,0.06278625954198469,0.29836259541984744,-0.1569351145038168,0
22907,-11.76875614013672,-2.162245190429687,0.8082357910156249,-0.01354961832061069,0.1762251908396948,-0.1569351145038168,0
22932,-11.756785131835937,-2.138303173828125,0.7268329345703124,-0.08225190839694663,0.18385877862595423,-0.21800381679389325,0
22957,-11.737631518554686,-2.1694277954101557,0.7771111694335937,-0.021183206106870245,0.09988931297709924,-0.21037022900763358,0
22982,-11.744814123535157,-2.14787998046875,0.7364097412109374,-0.08988549618320618,-0.12911832061068695,-0.16456870229007647,0
23007,-11.814245971679686,-2.162245190429687,0.7124677246093749,-0.09751908396946563,0.237293893129771,-0.1264007633587786,0
23032,-11.763967736816404,-2.181398803710937,0.7196503295898437,-0.0364503816793893,0.2220267175572519,-0.2256374045801527,0
23057,-11.816640173339842,-2.2125234252929684,0.7220445312499999,0.016984732824427473,0.405232824427481,-0.0271641221374046,0
23082,-11.761573535156248,-2.1359089721679685,0.7196503295898437,0.016984732824427473,0.16095801526717568,-0.24853816793893124,0
23107,-11.775938745117188,-2.1790046020507807,0.789082177734375,0.016984732824427473,0.29836259541984744,-0.2409045801526718,0
23132,-11.7807271484375,-2.1694277954101557,0.7866879760742187,0.0017175572519083637,0.24492748091603067,-0.16456870229007647,0
23157,-11.732843115234374,-2.171821997070312,0.7483807495117186,-0.11278625954198473,0.16095801526717568,-0.21800381679389325,0
23182,-11.807063366699218,-2.1502741821289058,0.6861315063476562,-0.05935114503816796,0.37469847328244277,-0.08823282442748093,0
23208,-11.766361938476564,-2.1933698120117184,0.7435923461914061,-0.18148854961832062,0.06172137404580158,-0.11876717557251915,0
23233,-11.783121350097655,-2.1837930053710934,0.7220445312499999,-0.07461832061068707,0.11515648854961835,-0.011896946564885491,0
23258,-11.759179333496093,-2.195764013671875,0.7962647827148437,-0.12041984732824429,0.15332442748091624,-0.10350000000000004,0
23283,-11.766361938476564,-2.133514770507812,0.7411981445312499,-0.08225190839694663,0.04645419847328247,-0.17983587786259536,0
23308,-11.766361938476564,-2.138303173828125,0.6597952880859375,-0.01354961832061069,0.12279007633587802,-0.26380534351145035,0
23333,-11.740025720214842,-2.181398803710937,0.7196503295898437,0.23072519083969464,-0.02224809160305341,0.0033702290076335073,0
23358,-11.785515551757811,-2.190975610351562,0.7723227661132812,0.009351145038167918,0.06935496183206125,-0.13403435114503826,0
23383,-11.682564880371093,-2.1359089721679685,0.7220445312499999,-0.19675572519083973,0.35943129770992366,-0.05769847328244282,0
23408,-11.766361938476564,-2.1406973754882808,0.66458369140625,-0.005916030534351191,0.2601946564885498,0.049171755725190835,0
23433,-11.795092358398438,-2.195764013671875,0.6885257080078124,-0.12805343511450384,0.41286641221374065,-0.1416679389312977,0
23458,-11.785515551757811,-2.0880249389648435,0.7220445312499999,0.06278625954198469,0.13805725190839713,-0.2561717557251909,0
23483,-11.751996728515625,-2.190975610351562,0.7076793212890624,-0.10515267175572518,0.008286259541984808,-0.04243129770992371,0
23508,-11.881283618164062,-2.1263321655273435,0.7459865478515624,-0.2349236641221374,0.31362977099236655,-0.27143893129771,0
23533,-11.751996728515625,-2.162245190429687,0.7675343627929687,-0.01354961832061069,0.19912595419847334,-0.07296564885496182,0
23558,-11.790303955078123,-2.114361157226562,0.7603517578125,-0.021183206106870245,0.3365305343511451,-0.1264007633587786,0
23583,-11.814245971679686,-2.2340712402343748,0.7316213378906249,0.05515267175572519,0.18385877862595423,-0.050064885496183265,0
