t_ms,ax,ay,az,gx,gy,gz,label
5,1.08,9.05,3.14,1.88,1.28,-1.67,1
29,1.02,9.07,3.05,1.51,1.28,-2.47,1
53,0.84,9.06,3.04,0.48,2.07,-2.65,1
78,0.94,9.07,3.11,-0.81,3.11,-2.34,1
102,0.94,9.09,3.18,-1.72,-1.65,-1.67,1
127,0.84,9.17,3.21,-1.66,-0.49,-1.18,1
151,0.92,9.23,3.21,-0.56,0.73,-0.33,1
176,1.01,9.23,3.24,0.54,-1.65,-0.21,1
200,0.96,9.15,3.2,0.78,-1.71,-0.09,1
225,0.91,9.01,3.17,0.35,-1.53,-0.88,1
250,0.85,9.1,3.17,0.17,-1.16,-2.04,1
274,0.86,9.12,3.1,1.09,3.04,-2.4,1
299,0.84,9.09,3.06,1.02,2.74,-1.25,1
323,0.86,9.1,2.88,-0.26,-1.83,-0.45,1
348,0.8,9.06,3.06,-2.45,-1.53,-0.39,1
372,0.85,9.11,3.17,-3.06,0.18,-0.03,1
397,0.86,9.2,3.31,-2.7,-2.26,-0.15,1
422,0.7,9.22,3.29,-1.11,-0.37,-0.7,1
446,0.75,9.2,3.32,0.23,2.25,-1.18,1
471,0.82,9.1,3.32,1.21,2.19,-0.09,1
495,0.82,9.2,3.19,1.02,-0.13,1.07,1
520,0.85,9.22,3.11,0.54,0.06,1.56,1
544,0.97,9.15,3.2,0.05,0.79,1.68,1
569,0.93,9.2,3.11,-0.99,-1.77,1.07,1
594,0.83,9.2,3.2,-1.72,0.48,0.22,1
618,0.95,9.1,3.29,-0.44,3.47,0.16,1
643,0.89,9.09,3.24,1.39,0.42,1.13,1
667,0.97,9.07,3.17,1.15,0,2.05,1
692,1.1,9.08,3.11,-0.01,-0.55,2.17,1
717,1.02,9.08,3.2,-0.81,-1.89,1.5,1
741,1.07,9.03,3.13,-0.13,0.06,1.38,1
766,1.12,9.03,3.07,0.11,-1.47,0.22,1
790,1.04,9.04,3.1,-1.54,-0.68,-1.61,1
815,0.96,9.03,3.23,-2.33,1.4,-1.98,1
839,0.95,9.12,3.2,-2.27,-2.63,-1.67,1
864,0.88,9.26,3.26,-1.48,-2.5,-2.04,1
889,0.76,9.21,3.12,-0.44,4.32,-1.86,1
913,0.79,9.19,3.3,-0.26,0.36,0.4,1
938,0.95,9.15,3.32,-0.68,-6.71,1.86,1
962,0.84,9.17,3.23,-0.26,-2.57,1.13,1
987,0.86,9.08,3.32,0.66,2.74,-0.27,1
1011,0.9,8.96,3.27,1.15,-0.68,-0.51,1
1036,0.88,9.09,3.2,0.05,-1.04,-0.45,1
1061,0.9,9.03,3.12,-1.05,0.79,-0.7,1
1085,0.78,9.15,3.21,-1.48,-0.07,-0.45,1
1110,0.88,9.14,3.26,-1.17,0.12,0.46,1
1134,0.89,9.1,3.28,-1.23,-1.1,1.13,1
1159,0.93,9.1,3.28,-0.5,-1.1,1.56,1
1183,0.87,9.09,3.29,0.29,0.61,1.25,1
1208,1.03,9.15,3.24,0.35,-0.55,0.83,1
1233,1.04,9.12,3.31,-0.32,0.12,-0.45,1
1257,0.9,9.08,3.28,-0.32,0.18,-0.51,1
1282,0.95,9.14,3.37,0.23,-0.61,-0.51,1
1306,0.92,9.09,3.24,1.02,0.67,-0.15,1
1331,0.91,9.08,3.23,0.54,0.3,0.46,1
1355,0.99,9.15,3.34,0.17,-1.71,0.71,1
1380,1.01,9.14,3.19,0.54,0.12,0.46,1
1405,0.97,9.15,3.23,0.72,-0.37,0.4,1
1429,0.93,9.08,3.26,1.27,-0.31,0.46,1
1454,1.06,9.07,3.17,1.45,0.06,0.34,1
1478,1.05,9.04,3.04,0.54,-0.92,-0.33,1
1503,0.98,9.01,3.09,-1.23,-0.07,-0.76,1
1528,0.91,9.1,3.28,-1.6,1.03,-0.82,1
1552,0.92,9.14,3.32,-1.6,-1.16,-0.45,1
1577,0.99,9.12,3.37,-0.44,-0.74,0.34,1
1601,0.9,9.2,3.32,0.54,-0.92,0.89,1
1626,1.01,9.19,3.31,1.09,-2.02,0.16,1
1650,1.06,9.18,3.32,0.9,0.12,-0.33,1
1675,1.04,9.05,3.21,1.15,-1.04,-0.03,1
1700,0.91,9.13,3.13,1.21,-2.44,-0.82,1
1724,0.92,9.12,3.18,1.21,0.73,-1.49,1
1749,0.86,9.05,3.14,1.02,0.79,-1.12,1
1773,0.78,9.11,3.1,0.29,-1.04,-0.15,1
1798,0.79,9.12,3.1,-0.2,0.73,0.89,1
1822,1.02,9.04,3.26,0.05,0.36,2.53,1
1847,0.98,9.02,3.2,0.29,-4.27,2.72,1
1872,1.16,9.09,3.16,-0.68,0.79,1.38,1
1896,1.22,8.98,3.25,-0.5,0.42,1.07,1
1921,1.2,9.04,3.32,-0.44,-5.07,0.16,1
1945,1.16,9.02,3.35,0.17,-1.65,-1.31,1
1970,1.05,9.01,3.5,1.69,2.07,-1.73,1
1995,0.97,9.04,3.69,5.29,-0.25,0.58,1
2020,0.98,9.09,3.37,9.8,-3.48,1.86,1
2045,1.05,9.11,3.08,10.29,1.95,1.19,1
2069,1.01,9.15,3.23,9.8,5.61,1.74,1
2094,1.08,9.12,3.22,11.45,0.73,3.94,1
2118,1.01,9.2,2.92,11.15,-3.11,3.82,1
2143,0.96,9.17,2.7,9.26,0.24,2.35,1
2168,1.11,9.19,2.7,7.49,0.48,2.41,1
2192,1.02,9.23,2.44,4.68,-5.49,1.93,1
2217,0.62,9.25,2.76,3.4,-1.41,0.77,1
2241,0.79,9.23,2.99,5.66,7.68,2.84,1
2266,0.82,9.31,2.97,6.51,-0.31,4.55,1
2290,0.9,9.18,2.93,7,0.61,4.73,1
2315,1.35,9.02,3.1,9.62,11.34,5.4,1
2340,1.62,8.94,3.12,11.51,2.74,6.62,1
2364,1.47,8.87,3.39,14.74,-1.77,6.01,1
2389,1.34,8.6,3.72,22,11.7,7.78,1
2413,1.9,8.61,3.75,32.06,16.21,12.78,1
2439,2.62,8.94,3.67,41.08,5,10.71,1
2463,2.84,9.08,3.31,50.96,9.69,-2.59,1
2488,3.69,9.3,3.23,58.71,21.09,-21.31,1
2513,3.97,9.49,2.3,62.61,18.71,-43.44,1
2537,4.02,9.68,0.81,61.45,9.39,-72.53,1
2562,3.45,9.57,0.14,54.32,28.04,-110.33,1
2586,2.36,9.12,-0.6,50.29,67.62,-146.85,1
2612,1.53,9.1,-1.8,44.26,94.75,-173.62,1
2637,0,8.49,-3.19,22.85,108.41,-199.35,1
2661,-1.12,7.8,-3.83,-5.44,114.57,-221.55,1
2686,-3.6,7.86,-3.71,-36.96,89.38,-228.68,1
2711,-7.36,6.25,-4.18,-53.98,15.67,-200.82,1
2736,-7.98,5.11,-4.17,-89.46,23.17,-165.27,1
2760,-8.35,4.67,-3.77,-126.84,-37.87,-121.61,1
2786,-9.71,5.36,-1.85,-163.49,-106.22,-67.89,1
2811,-11.21,5.27,0.56,-178.3,-145.92,-5.57,1
2835,-10.55,5.83,2.74,-179.34,-184.15,53.57,1
2861,-9.26,5.92,4.69,-171.29,-221.1,104.91,1
2885,-7.66,5.86,5.93,-156.17,-217.56,144.67,1
2910,-5.82,5.54,7.11,-138.36,-196.71,169.18,1
2936,-4.17,5.15,8.56,-116.9,-167.01,182.23,1
2960,-2.02,4.89,9.85,-93,-149.03,191.56,1
2985,0.67,2.8,10.33,-62.63,-169.82,204.73,1
3010,-0.74,3.93,10.07,-33.55,-184.82,217.11,1
3035,0.62,4.14,11.11,-3.55,-87.2,221.19,1
3059,2.62,2.5,11.89,27.06,-23.54,222.41,1
3084,4.02,1.34,12.12,58.4,-55.74,228.33,1
3110,6.23,2.3,11.56,94.99,-58.05,223.2,1
3134,7.33,2.34,10.82,130.47,-26.71,208.2,1
3159,7.93,1.13,10.02,160.11,-50.31,184.3,1
3184,11.16,1.79,9.87,186.08,-33.48,151.74,1
3209,12.19,1.47,9.75,207.55,-8.48,110.28,1
3234,12.71,1.07,8.92,233.22,-51.65,66.07,1
3259,12.97,1.92,6.79,247.18,-71.71,15.95,1
3284,12.88,2.19,5.1,250.41,-58.42,-34.84,1
3308,12.3,2.19,3.96,242.18,-67.32,-83.68,1
3333,10.71,2.48,2.18,229.92,-93.91,-119.84,1
3358,8.48,2.84,1.07,217,-97.5,-143.93,1
3383,7.13,2.79,-0.18,208.16,-83.42,-158.01,1
3408,5.6,3.26,-1.71,197.49,-78.91,-167.4,1
3433,2.97,4.06,-3.09,184.5,-69.45,-173.5,1
3458,4.42,2.8,-5.27,162.12,-18.6,-174.23,1
3482,2.19,4.62,-6.13,128.46,-11.35,-166.73,1
3508,1.74,5.24,-7.28,86.39,-11.16,-151.18,1
3533,1.05,5.23,-7.88,41.33,-32.2,-133.62,1
3557,0.55,5.4,-8.04,7.12,-53.48,-124.17,1
3582,-0.22,5.39,-8.38,-16.78,-60.06,-119.66,1
3607,-0.48,5.56,-8.49,-38.12,-55.13,-117.46,1
3632,-0.95,5.43,-8.67,-60.32,-47.93,-116.67,1
3656,-0.67,5.41,-8.24,-82.39,-35.06,-118.2,1
3681,-0.95,5.5,-7.51,-104.22,-62.69,-121.06,1
3707,-1.77,4.97,-7.28,-126.66,-83.78,-121.43,1
3731,-1.57,5.34,-6.41,-155.8,-69.82,-125.51,1
3756,-2.27,5.07,-4.67,-189.77,-113.11,-131.85,1
3781,-4.01,4.86,-3.24,-218.49,-172.69,-122.59,1
3806,-6.96,6.06,-0.54,-235.5,-198.9,-95.94,1
3831,-8.69,4.99,1.09,-228.3,-232.87,-36.12,1
3856,-8.75,5.64,2.82,-222.39,-242.62,26.5,1
3881,-8.56,6.27,5.28,-223.18,-250,75.58,1
3905,-8.18,5.82,7.97,-218.55,-253.23,119.73,1
3931,-7.39,5.57,10.19,-197.63,-223.54,161.74,1
3955,-5.12,4.59,13.26,-156.84,-129.03,190.7,1
3980,-2.95,4.1,15.41,-98.55,-49.76,209.12,1
4006,-0.81,3.33,15.96,-37.7,-35.31,219.3,1
4030,1.06,3.14,14.82,18.04,-15.86,218.81,1
4055,2.26,2.49,14.1,58.89,8.65,214.06,1
4080,2.41,1.93,13.88,87.3,-9.33,219.3,1
4105,3.97,1.61,12.84,120.35,-2.32,224.18,1
4130,5.66,1.58,11.18,150.05,23.59,215.4,1
4154,6.57,1.07,9.71,166.45,0.61,202.11,1
4180,7.41,0.42,9.14,175.96,-17.87,186.62,1
4204,7.69,0.06,8.63,189.5,-29.21,173.39,1
4229,9,-0.23,7.6,210.35,-23.17,158.33,1
4253,10.98,-0.22,6.03,228.28,-11.35,133.39,1
4279,11.96,0.18,4.95,233.03,-26.47,96.07,1
4304,12.73,0.51,4.23,232.06,-29.33,51.68,1
4328,13.1,0.98,3.12,232.36,-23.78,3.51,1
4354,12.68,0.83,1.65,233.03,-43.36,-48.2,1
4378,12.62,1.59,0.19,219.92,-28.54,-90.94,1
4403,11.88,1.36,-0.39,198.95,-22.5,-122.28,1
4427,11.37,2.05,-1.48,176.75,-54.52,-144.48,1
4453,10.13,2.94,-3.22,153.77,-101.16,-168.74,1
4478,7.44,4.12,-4.81,122.18,-127.14,-202.28,1
4503,7.55,4.32,-6.88,86.57,-103.05,-237.65,1
4528,4.13,4.63,-7.61,54.19,-84.45,-262.22,1
4552,1.4,4.1,-8.08,36.82,-43.36,-285.63,1
4577,0.96,3.4,-8.68,16.57,-15.98,-286.79,1
4603,-0.63,2.93,-9.23,-18.73,-75.67,-282.58,1
4627,-4.46,3.64,-8.45,-60.87,-134.94,-270.08,1
4652,-5.56,2.32,-8.42,-91.72,-95.98,-238.13,1
4677,-5.47,2.8,-7.87,-123.18,-105.43,-211.49,1
4702,-7.27,2.9,-6.37,-157.02,-181.59,-184.78,1
4727,-10.15,5.05,-3.82,-196.11,-235.55,-147.4,1
4752,-11.3,3.61,-1.92,-204.16,-276.04,-81.49,1
4777,-11.96,3.62,-1.96,-215.19,-250.37,-25.39,1
4801,-10.41,1.55,-0.64,-254.16,-184.58,6.25,1
4827,-8.22,3.66,4.13,-292.88,-213.23,34.3,1
4851,-9.13,2.99,11.34,-267.94,-230.12,79.12,1
4876,-7.19,3.27,13.95,-207.88,-254.33,122.29,1
4902,-6.09,2.84,14.72,-140.99,-267.38,156.62,1
4926,-5.22,2.26,13.91,-86.29,-217.32,181.8,1
4952,-4.1,0.87,13.98,-47.02,-139.64,205.15,1
4976,-1.96,0.94,15.06,-8.73,-113.54,234.36,1
5001,-0.3,-0.53,14.61,33.89,-131.71,266.98,1
5026,1.43,-0.63,13.04,77.79,-155.31,283.02,1
5051,3.33,-0.79,11.23,122.43,-129.09,278.75,1
5076,5.18,-1.43,11.24,162.79,-60.86,267.29,1
5101,5.82,-3.61,12.03,208.64,-63.91,266.43,1
5126,6.44,-4.3,10.78,244.99,-73.6,258.81,1
5150,8.43,-3.7,9.39,275.29,-43.6,240.28,1
5176,10.72,-3.33,9.12,295.35,-3.72,212.59,1
5201,12.33,-2.81,7.44,302.61,-56.1,173.33,1
5225,13.13,-3.13,5.73,307.18,-80.25,120.7,1
5251,13.46,-3.43,4.23,307.42,-64.03,57.41,1
5275,13.66,-2.73,2.15,292.73,-74.15,-1.25,1
5300,13.21,-2.54,0.16,270.72,-80.49,-54.11,1
5325,12.52,-2.52,-0.87,246.27,-60.92,-96.18,1
5350,11.94,-1.36,-2.43,222,-71.28,-125.27,1
5375,9.44,-0.2,-3.67,185.05,-120.13,-145.7,1
5399,8.67,-0.08,-5.47,141.57,-122.99,-159.96,1
5425,7.94,2,-6.5,102.97,-91.1,-166.06,1
5449,6.66,2.56,-6.72,73.22,-88.84,-175.88,1
5474,6.09,3.21,-7.86,44.62,-104.82,-183.2,1
5500,4.85,3.93,-8.62,16.57,-95.61,-194.35,1
5524,3.48,3.86,-9.12,-4.65,-73.6,-214.96,1
5549,2.02,3.9,-8.68,-25.99,-66.28,-214.78,1
5573,0.87,4.29,-8.84,-36.6,-84.94,-201.79,1
5599,-0.09,3.91,-9.4,-45.07,-101.47,-196.73,1
5624,-1.78,4.74,-9.14,-74.65,-81.71,-204.9,1
5648,-1.44,4.51,-8.41,-113,-93.84,-212.71,1
5673,-1.98,3.43,-7,-149.1,-115.67,-213.56,1
5698,-3.3,2.59,-5.67,-182.27,-153.05,-209.96,1
5723,-4.25,2.26,-4.4,-215.44,-173.42,-200.51,1
5748,-6.2,2.04,-2.65,-239.22,-202.08,-185.51,1
5773,-8.91,1.9,-0.52,-260.5,-232.75,-154.23,1
5798,-9.99,2.15,1.96,-275.13,-247.01,-107.95,1
5823,-11,2.55,5.48,-263.18,-219.58,-47.4,1
5848,-11.23,2.57,8.71,-224.64,-181.16,16.32,1
5872,-11.5,2.98,11.17,-173.12,-145.37,74.55,1
5898,-11.4,2.59,11.62,-130.07,-85.31,123.02,1
5923,-9.07,1.66,11.69,-102.82,-23.3,154.55,1
5947,-7.51,1.63,12.93,-88.73,21.15,181.5,1
5973,-5.03,2,14.49,-64.89,31.76,212.78,1
5997,-3.02,2.42,15.45,-32.82,-24.27,240.64,1
6022,-1.55,2.18,15.04,9.19,-115.06,266.56,1
6047,-1.16,2.5,12.91,46.33,-168.54,285.03,1
6072,-0.95,1.85,12.68,78.58,-111.83,292.9,1
6097,4.36,-1.88,13.62,123.58,50.79,290.82,1
6122,4.89,0.19,14.29,168.64,37.92,284.12,1
6147,5.97,0.39,11.26,190.66,-77.75,269.73,1
6171,7.65,0,9.71,210.78,-85.13,240.58,1
6197,6.25,-0.84,10.05,222.55,-36.41,210.34,1
6222,11,2.42,8.36,235.05,-33.11,188.51,1
6246,11.31,0.57,6.13,247.18,-76.22,153.94,1
6272,13.77,1.64,4.59,236.81,-68.78,106.01,1
6296,12.6,1.85,2.49,224.8,-97.93,42.84,1
6321,13.86,1.57,1.55,216.75,-66.35,-21.79,1
6346,12.53,1.85,-0.05,214.8,-60.92,-74.05,1
6371,10.94,1.74,-1.64,202.67,-83.05,-111.12,1
6396,9.54,1.67,-2.67,184.01,-60.25,-135.88,1
6420,9.16,1.77,-3.21,162.97,-30.19,-144.6,1
6446,7.24,2.9,-4.42,141.69,-106.95,-139.17,1
6470,5.38,2.88,-5.73,119.19,-156.22,-137.71,1
6495,4.32,3.28,-6.89,87.91,-103.48,-142.04,1
6521,3.56,3.35,-7.31,67.43,-92.93,-156.98,1
6545,2.09,3.24,-8.04,54.44,-116.59,-173.68,1
6570,1.89,2.77,-8.48,35.72,-64.88,-183.5,1
6595,5.23,1.26,-10.28,25.72,-65.67,-183.01,1
6620,-1.48,2.56,-9.44,12.43,-125.92,-186.12,1
6644,-1.94,2.55,-9.97,-8.31,-76.71,-189.66,1
6669,-2.75,2.61,-8.44,-23,-66.65,-188.01,1
6695,-3.81,2.36,-7.57,-23.12,-132.5,-165.94,1
6719,-6.43,2.33,-8.7,-22.63,-132.56,-147.16,1
6744,-7.19,3.27,-10.09,-46.29,-22.93,-150.39,1
6769,-6.14,3.6,-9.06,-81.66,4.26,-156.12,1
6794,-7.24,3.06,-8.48,-114.58,-76.95,-151.12,1
6819,-8.8,2.22,-7.41,-155.19,-79.03,-137.34,1
6843,-11.64,2.55,-5.41,-183.85,-58.42,-107.53,1
6869,-12.02,2.12,-4.14,-206.23,-80.31,-58.01,1
6893,-12.24,2.5,-1.97,-233.79,-148.84,-4.97,1
6918,-12.16,2.77,0.1,-260.31,-194.15,44.97,1
6943,-12.02,2.84,2.8,-278.73,-194.27,84.91,1
6968,-10.65,2.76,5.41,-278.73,-165.92,124.48,1
6994,-9.32,1.76,7.72,-260.5,-159.94,166.01,1
7018,-7.45,2.82,7.9,-236.9,-166.22,210.46,1
7043,-4.98,1.76,9.4,-206.9,-166.34,249.36,1
7068,-2.53,1.64,9.97,-182.27,-160.86,269.36,1
7093,0.54,1.96,11.24,-157.57,-142.75,273.2,1
7118,2.53,1.26,12.95,-124.65,-149.58,270.09,1
7143,2.15,1.27,13.66,-85.5,-210.19,272.23,1
7168,3.46,0.99,15.32,-21.35,-151.28,266.62,1
7192,5.81,0.49,16.14,61.45,-16.96,251.19,1
7218,6.21,-0.96,15.5,124.68,-47.5,232.17,1
7242,7.78,-0.9,14.21,177.06,-74.15,201.98,1
7267,8.6,-1.39,13.2,223.16,-19.46,172.29,1
7293,8.55,-2.27,12.62,256.75,-9.27,151.13,1
7317,9.25,-1.84,10.98,283.83,-46.71,130.58,1
7342,10.86,-1.87,9.11,305.41,-50.31,105.89,1
7367,10.95,-1.48,6.53,313.89,-77.63,73.14,1
7392,11.48,-0.1,4.48,309.98,-82.44,31.44,1
7417,11.37,0.07,2.55,299.13,-44.39,-4.72,1
7441,11.48,-0.12,0.74,278.4,-48.91,-25.88,1
7467,10.87,0.79,-1.42,246.33,-100.74,-46.25,1
7491,9.54,1.58,-2.46,213.46,-120,-71.73,1
7516,8.34,0.6,-3.22,186.75,-90.74,-87.83,1
7541,8.91,-0.11,-3.82,158.83,-82.99,-90.94,1
7566,7.46,2.44,-6.16,124.19,-140.19,-98.87,1
7591,5.39,2.87,-7.93,83.1,-166.53,-125.33,1
7616,3.19,2.96,-8.73,46.21,-87.99,-151.18,1
7641,2.82,2.94,-8.85,25.48,-24.21,-150.63,1
7665,2.62,3.35,-9.12,3.71,-59.88,-132.34,1
7690,1.27,3.63,-9.48,-26.54,-104.27,-116,1
7716,0.55,3.76,-9.95,-54.46,-114.15,-103.32,1
7740,0.22,4.37,-10.17,-74.16,-105.92,-97.4,1
7765,0.05,5.27,-10.18,-89.95,-89.39,-106.85,1
7789,0.08,5.66,-10.08,-112.63,-77.75,-125.27,1
7815,-0.27,5.8,-8.77,-145.01,-80.98,-146.49,1
7839,-1.32,4.88,-6.94,-160.86,-66.89,-167.59,1
7864,-1.66,4.2,-5.98,-153.43,-21.1,-186.06,1
7890,-2.61,4.09,-5.66,-155.8,-8.72,-201.79,1
7914,-4.57,3.97,-4.64,-176.29,-4.94,-236.49,1
7939,-6,3.58,-2.95,-191.35,24.81,-253.32,1
7964,-8.54,3.02,-1.34,-183.61,13.53,-231.61,1
7989,-12.67,2.17,0.51,-179.22,-32.38,-182.83,1
8014,-13.86,3.07,2.51,-180.93,-46.1,-123.99,1
8039,-17.47,3.69,8.74,-166.66,-77.56,-49.96,1
8064,-15.07,2.77,6.12,-161.78,-132.08,24.61,1
8088,-14.43,3.01,6.85,-170.44,-191.28,89.61,1
8114,-12.16,3.48,8.99,-169.04,-188.97,152.41,1
8138,-9.9,3.56,10.83,-153.91,-211.04,209.61,1
8163,-8.53,3.51,11.89,-131.35,-265.37,261.74,1
8189,-6.3,2.82,13,-90.19,-232.44,303.45,1
8213,-2.34,1.78,13.07,-38.37,-127.69,325.7,1
8238,0.49,1.83,12.49,7.61,-101.47,329.36,1
8263,2.84,1.78,11.84,52.18,-123.36,317.47,1
8288,4.85,0.73,12.06,96.69,-83.36,296.19,1
8313,5.9,-0.43,12.1,133.64,-47.56,275.34,1
8338,7.41,-0.56,10.91,160.17,-76.77,257.96,1
8363,9.15,-0.94,10.09,187.97,-94.7,236.01,1
8387,9.93,-1.06,10.41,216.75,-106.16,208.45,1
8413,10.9,-0.34,9.82,254.13,-138.36,171.56,1
8437,12.27,-0.6,6.66,293.83,-135.25,123.33,1
8463,13.18,-1.57,3.45,306.02,-104.52,70.34,1
8488,12.76,-1.44,0.31,280.59,-96.77,15.28,1
8512,14.78,0.27,-1.71,231.81,-86.83,-41.31,1
8537,13.5,-1.35,-2.91,189.25,-121.41,-94.54,1
8562,11.31,-1.57,-3.9,155.66,-118.23,-131.31,1
8587,9.61,-0.11,-4.44,123.34,-116.47,-146.31,1
8613,7.49,0.67,-5.27,94.5,-159.03,-150.63,1
8637,6.27,0.45,-6.18,68.16,-156.34,-153.01,1
8662,4.89,1.5,-6.83,48.1,-150.25,-154.35,1
8686,3.31,1.39,-7.07,34.07,-143.6,-162.71,1
8712,1.38,1.71,-7.9,18.77,-122.38,-168.44,1
8736,-0.56,1.86,-7.9,0.96,-105.61,-148.32,1
8761,-2.11,3.17,-8.84,-6.6,-109.27,-128.01,1
8787,-1.51,4.42,-10.2,-28.24,-86.04,-112.1,1
8811,-0.64,5.27,-10.24,-67.45,-77.87,-96.49,1
8836,-1.07,5.93,-10.35,-97.94,-129.33,-96.37,1
8860,-1.47,5.9,-10.3,-128.97,-108.05,-113.68,1
8886,-2.08,5.37,-9.25,-156.72,-44.88,-127.46,1
8911,-2.31,5.25,-8.03,-171.9,-45.86,-141.12,1
8935,-2.63,4.92,-7.28,-191.66,-65.43,-159.35,1
8961,-3.93,4.08,-6.34,-219.52,-72.99,-169.54,1
8985,-4.43,2.82,-5.11,-253.36,-82.32,-171.91,1
9010,-6.23,2.35,-2.31,-293.42,-127.14,-165.45,1
9035,-7.69,1.74,1.11,-309.46,-191.16,-118.68,1
9060,-8.62,1.8,5.42,-300.62,-253.29,-47.34,1
9085,-8.9,2.94,9.04,-284.22,-334.7,37.23,1
9110,-8.63,4.92,12.7,-233,-408.84,129.42,1
9135,-7.92,4.12,12.33,-153.67,-412.32,201.07,1
9160,-5.97,3.45,10.13,-109.28,-251.34,228.08,1
9185,-1.41,3.24,12.83,-93.24,-36.65,230.34,1
9210,-0.16,2.6,15.41,-65.01,-35,237.96,1
9235,2.33,1.61,16.3,-14.83,-93.42,252.23,1
9260,3.89,0.99,15.15,39.26,-114.58,262.65,1
9284,4.15,0.63,13.36,82.49,-134.82,262.65,1
9310,5.91,-0.79,13.17,134.01,-79.52,253.08,1
9335,6.85,-1.6,12.68,187.49,-43.6,243.81,1
9359,7.44,-2.37,11.43,227.79,-77.93,227.78,1
9385,8.1,-3.59,9.74,263.28,-64.88,204.3,1
9409,9.44,-3.76,8.96,284.98,-16.89,178.08,1
9434,9.86,-4.04,8.15,299.5,-30.55,154.67,1
9458,11.07,-4.39,6.81,314.86,-47.2,128.69,1
9484,12.18,-4.01,4.59,316.45,-46.59,94.18,1
9509,14.49,-3.69,2.94,301.75,-38.85,54.3,1
9533,14.42,-3.15,0.78,268.4,-58.72,4,1
9559,14.37,-2.46,-0.45,237.24,-59.94,-48.32,1
9583,13.38,-2.01,-1.11,206.21,-73.17,-93.81,1
9608,11.81,-0.73,-1.79,175.29,-90.25,-123.56,1
9634,10,-0.74,-1.87,160.23,-99.33,-144.41,1
9658,7.98,-0.23,-2.81,154.8,-108.42,-156.67,1
9683,6.52,0.61,-4.39,138.83,-114.45,-157.71,1
9708,4.77,2.55,-6.27,120.23,-115.67,-153.68,1
9733,4.13,2.64,-7.51,97.3,-120.31,-152.83,1
9757,3.47,3.13,-8.42,64.74,-92.32,-156.73,1
9783,3.42,3.81,-8.8,37.12,-74.39,-152.52,1
9808,2.6,3.48,-8.98,16.45,-106.65,-153.5,1
9832,1.35,3.62,-9.99,-9.4,-99.09,-160.76,1
9857,1.17,3.92,-10.64,-38.61,-50.67,-168.8,1
9882,0.38,4.05,-10.28,-67.69,-47.63,-180.45,1
9907,-0.25,4.02,-9.57,-96.29,-59.15,-184.6,1
9931,-0.57,4.32,-8.97,-123.97,-62.2,-182.52,1
9956,-1.71,4.08,-8.59,-150.01,-86.59,-191,1
9982,-3.04,3.47,-8.46,-181.96,-68.97,-210.15,1
10006,-2.47,2.51,-7.52,-212.69,-41.83,-221.3,1
10031,-4.63,1.71,-5.32,-240.19,-79.21,-219.96,1
10056,-5.21,1.01,-2.72,-277.14,-133.42,-208.5,1
10081,-6.16,0.93,0.12,-310.38,-210.92,-176.3,1
10107,-7.08,2.17,3.79,-316.05,-295.18,-111.24,1
10131,-7.95,1.6,5.6,-278.61,-335.61,-36.61,1
10156,-9.23,3.5,10.3,-235.25,-331.95,21.68,1
10181,-9.3,4.13,12.12,-186.9,-287.93,64.91,1
10206,-9.17,3.44,12.88,-133.97,-183.42,99.73,1
10232,-8.47,2.43,13.09,-100.32,-85.55,131.56,1
10256,-6.73,2.49,14.33,-76.84,2.86,163.45,1
10281,-4.35,1.84,15.87,-43.49,18.84,199.97,1
10306,-2.25,1.66,16.07,-12.7,-23.48,236.13,1
10331,-0.11,1.12,15.62,28.89,-125.25,265.15,1
10355,0.59,1.41,13.44,72.91,-202.69,281.62,1
10381,1.08,0.6,12.19,111.75,-167.08,288.02,1
10406,2.45,-0.42,11.83,146.94,-57.44,288.75,1
10430,5.41,-1.48,11.26,179.5,8.17,286.01,1
10456,6.61,-1.56,10.11,195.11,-44.94,277.96,1
10480,7.22,-1.5,8.15,209.5,-86.28,258.57,1
10506,9.51,-2.29,7.37,218.77,-0.61,232.29,1
10531,11.68,-2.2,7.61,229.92,16.4,203.57,1
10555,12.04,-1.21,6.15,224.92,-85,167.66,1
10581,13.08,-1.22,4.96,219.99,-92.5,117.05,1
10605,12.82,-0.81,3.92,211.75,-57.32,52.17,1
10630,13.57,0.15,2.71,194.99,-52.75,-7.71,1
10655,13.92,0.59,2.07,187.49,-41.96,-63.07,1
10680,13.29,0.37,1.58,182.91,-34.27,-108.26,1
10705,12.41,0.23,1.15,176.27,-47.99,-144.29,1
10730,11.62,1.16,-0.57,170.11,-61.83,-170.09,1
10755,9.72,1.83,-2.45,154.68,-95.86,-189.66,1
10779,8.03,2.32,-4.05,127.18,-103.78,-207.52,1
10805,6.91,3.82,-5.58,90.78,-83.72,-222.16,1
10830,7.55,3.9,-6.21,58.52,-70.37,-236.61,1
10854,3.7,4.56,-7.07,28.52,-66.04,-253.68,1
10880,2.68,4.43,-7.52,0.29,-21.22,-263.68,1
10904,0.55,4.52,-7.21,-24.77,-37.63,-263.01,1
10929,-1.41,4.3,-7.4,-46.9,-50.74,-258.38,1
10954,-2.61,3.64,-7.71,-70.26,-37.75,-246.79,1
10979,-3.69,3.83,-6.98,-95.32,-55.31,-230.88,1
11004,-5.53,4.14,-6.52,-125.86,-111.47,-208.87,1
11029,-6.85,3.9,-5.28,-169.89,-137.75,-184.72,1
11054,-7.45,4.6,-2.52,-212.33,-159.94,-149.9,1
11078,-9.02,3.23,0.44,-228,-243.42,-93.81,1
11104,-8.96,4.17,2.24,-236.9,-309.51,-35.76,1
11129,-9.61,5.42,5.47,-234.71,-327.32,26.92,1
11153,-9.67,4.9,9.21,-202.14,-304.94,91.44,1
11179,-8.78,4.09,10.56,-158.97,-282.2,147.66,1
11203,-7.4,4.98,10.11,-115.86,-248.84,189,1
11229,-4.4,4.02,10.77,-84.16,-172.2,215.15,1
11253,-1.9,3.27,11.99,-63.24,-125.86,236.31,1
11278,-0.48,3.18,13.02,-39.52,-173.42,258.08,1
11304,1.01,1.56,13.45,8.16,-194.76,277.96,1
11328,3.26,0.21,12.92,59.93,-127.02,284.85,1
11354,5.6,-0.7,12.52,105.23,-76.41,281.25,1
11378,6.34,-1.28,12.15,147.73,-96.95,272.04,1
11403,7.53,-2.31,11.79,198.16,-82.2,254.06,1
11429,9.3,-3.42,11.14,244.38,-0.37,225.83,1
11453,10.66,-3.42,9.87,277,10.97,197.53,1
11478,11.48,-4.32,8.04,292.12,-41.28,166.01,1
11503,12.81,-4.67,6.61,291.2,-33.91,126.25,1
11528,13.55,-4.66,5.51,277.97,-21.65,84.24,1
11554,13.97,-4.63,3.73,265.66,-50.49,39.24,1
11578,14.64,-4.05,2.47,252.55,-65.06,-6.06,1
11603,13.93,-2.78,1.59,225.84,-80.67,-53.5,1
11628,13.69,-2.33,1.05,196.21,-81.1,-102.46,1
11653,12.17,-1.88,-0.44,183.16,-78.91,-143.62,1
11677,10.39,-1.05,-1.37,169.68,-88.84,-169.66,1
11703,9.38,-0.51,-2.22,152.61,-81.41,-185.02,1
11728,7.79,0.08,-3.21,135.11,-88.72,-193.26,1
11752,7.09,0.74,-4.28,113.58,-96.04,-196.67,1
11778,5.84,1.69,-6.38,88.89,-100.31,-196.24,1
11802,4.68,2.85,-7.2,62.67,-73.97,-205.02,1
11827,3.53,3.56,-7.81,44.56,-44.27,-217.58,1
11853,3.72,3.94,-8.33,28.77,-17.87,-226.18,1
11877,0.45,4.28,-9.98,3.71,-59.15,-230.27,1
11902,-1.11,4.18,-10.35,-37.88,-54.03,-222.16,1
11927,-1.23,4.49,-9.33,-76.29,-30.49,-202.28,1
11952,-2.51,4.19,-8.89,-106.29,-92.87,-184.9,1
11976,-3.65,4.2,-8.75,-144.34,-116.89,-174.48,1
12002,-4.71,4.71,-6.81,-185.44,-91.47,-166.98,1
12027,-6.21,4.3,-4.99,-208.67,-120.86,-147.77,1
12051,-7.15,4.23,-3.09,-226.41,-141.53,-119.6,1
12077,-7.5,4.59,-1.28,-250.74,-156.47,-86.18,1
12101,-8,5.33,1.41,-270.99,-206.53,-40.76,1
12127,-13.02,5.34,9.26,-261.96,-285.61,24.12,1
12152,-9.5,5.28,8.73,-210.32,-288.84,98.94,1
12176,-8.23,5.74,9.59,-168.24,-269.51,160.52,1
12202,-5.7,5.04,9.98,-139.22,-207.62,200.4,1
12226,-2.97,4.88,10.49,-112.45,-155.61,222.65,1
12252,-0.56,4.02,11.37,-77.45,-146.71,237.29,1
12276,0.85,3.24,11.81,-42.69,-150.55,254.97,1
12301,2.46,1.55,12.4,-3.37,-118.6,267.9,1
12327,5.19,0.51,12.73,44.56,-44.52,271.19,1
12351,6.44,-0.22,11.95,85.78,-77.75,271.74,1
12376,7.24,-1.52,10.77,125.96,-115.31,264.79,1
12401,8.89,-2.62,11,170.78,-40.74,248.26,1
12426,10.75,-2.77,10.54,217.55,10.67,228.45,1
12452,11.67,-3.03,8.53,245.59,-59.7,196.98,1
12476,12.56,-3.34,6.84,256.81,-62.44,149.06,1
12501,13.74,-2.98,6.24,254.38,-26.41,101.01,1
12526,13.84,-2.44,5.22,249.99,-38.17,55.83,1
12551,14.81,-1.59,4.63,242.3,-50.86,-0.33,1
12575,13.3,-2.03,2.63,233.46,-68.54,-60.27,1
12601,12.94,-1.87,1.67,220.66,-27.38,-108.26,1
12626,12.2,-1.4,0.65,211.57,-18.17,-131.61,1
12651,11.5,-1.13,0.2,200.96,-46.77,-145.33,1
12676,10.44,-0.23,-1.37,193.16,-69.27,-157.52,1
12700,8.52,0.92,-2.85,173.22,-92.56,-166.24,1
12726,8.02,1.25,-4.23,145.35,-113.54,-172.65,1
12751,6.51,2.78,-5.6,118.4,-106.1,-178.93,1
12775,5.35,3.26,-6.09,97.85,-84.64,-191.3,1
12801,5.08,3.08,-6.35,75.35,-62.08,-201.91,1
12825,3.14,4.32,-6.83,63.65,-72.08,-203.8,1
12850,1.74,3.89,-6.96,63.4,-70.37,-216.49,1
12875,0.97,4.04,-7.73,58.65,-29.52,-231.37,1
12900,0.04,3.94,-8.32,50.66,1.15,-244.11,1
12925,-1.19,3.33,-9.48,43.77,12.62,-251.43,1
12949,-1.63,3.4,-10.32,26.51,28.41,-241.3,1
12975,-2.91,3.54,-10.82,-14.59,-1.96,-221.61,1
12999,-3.9,3.83,-10.17,-59.16,-48.72,-195.82,1
13024,-4.99,3.13,-10.04,-103.79,-92.69,-168.8,1
13050,-5.69,3.34,-9.15,-147.88,-107.2,-141.55,1
13074,-5.67,3.07,-7.71,-184.77,-143.42,-107.89,1
13100,-6.91,3.23,-5.17,-223.61,-221.65,-66.98,1
13124,-8.35,3.52,-3.13,-257.02,-287.93,-6.55,1
13149,-8.62,3.15,-0.63,-268.85,-320.92,62.78,1
13175,-7.48,3.58,2.02,-273.85,-331.65,117.9,1
13199,-6.56,3.33,4.17,-274.28,-327.56,163.02,1
13224,-5.8,2.46,6.16,-267.2,-287.56,201.19,1
13249,-2.95,2.67,9.45,-253.79,-230.73,233.75,1
13274,0.17,2.98,13.75,-212.94,-252.26,259.36,1
13299,2.98,2.21,15.17,-136.9,-293.66,268.93,1
13324,4.22,2.28,13,-60.93,-284.33,259.48,1
13350,4.59,0.48,12.08,-5.13,-209.58,248.63,1
13374,5.46,-0.82,13.18,51.02,-111.47,248.81,1
13399,7.8,-1.9,13.66,118.1,-33.78,246.25,1
13424,10.46,-2.11,12.57,180.53,3.17,231.62,1
13449,10.54,-2.27,10.78,226.69,-51.16,199,1
13474,10.38,-3.51,9.7,262.97,-72.56,163.02,1
13499,10.32,-3.77,8.5,284.74,-40.31,135.34,1
13524,10.96,-2.73,6.65,299.74,-34.76,109.36,1
13549,11.37,-2.75,4.79,301.33,-51.47,77.23,1
13574,12.84,-2.69,3.63,292.85,-5.8,43.69,1
13598,13.27,-2.27,3.21,279.68,-12.38,11.44,1
13624,13.38,-1.68,1.17,260.59,-58.97,-28.81,1
13649,12.62,-1.17,-0.68,239.25,-58.85,-71.06,1
13673,12.57,-0.66,-0.77,207.67,-24.64,-104.78,1
13699,12.4,0.44,-1.08,185.9,-45.92,-130.88,1
13723,10.47,0.69,-2.61,175.29,-93.42,-151.12,1
13748,8.59,0.79,-3.69,154.56,-106.59,-164.84,1
13774,7.76,1.83,-4.36,132.24,-92.63,-170.94,1
13798,7.01,3.18,-5,116.63,-91.34,-179.54,1
13824,5.7,2.97,-5.48,109.13,-103.42,-194.72,1
13848,4.05,3.19,-6.95,98.04,-82.08,-209.78,1
13873,3.93,3.69,-7.82,77.85,-31.04,-217.16,1
13898,2.75,3.8,-8.02,58.46,-32.87,-218.44,1
13923,1.47,3.57,-8.34,42.12,-32.44,-217.89,1
13948,-0.17,4.59,-9.63,20.84,-7.69,-216.37,1
13972,-0.23,4.96,-9.12,-5.99,-17.38,-210.69,1
13998,-1.03,4.57,-8.77,-30.93,-39.21,-201.98,1
14022,-1.59,4.91,-8.44,-53.3,-62.56,-184.11,1
14047,-2.63,4.58,-8.11,-76.78,-98.91,-167.1,1
14073,-3.27,3.76,-8.5,-105.74,-102.44,-160.33,1
14097,-4.31,3.75,-8.11,-136.29,-73.24,-159.6,1
14122,-5.55,4.08,-6.71,-170.93,-91.95,-154.11,1
14147,-7.57,3.58,-4.79,-203.67,-146.71,-131,1
14172,-8.6,3.99,-2.34,-225.8,-162.81,-85.39,1
14196,-9.86,4.3,-0.05,-235.07,-191.53,-23.68,1
14222,-9.39,4.41,3.28,-228.3,-245.61,46.07,1
14247,-8.81,5.18,5.6,-213.49,-304.7,113.2,1
14272,-7.72,5.55,7.73,-187.45,-321.16,174.06,1
14297,-6.55,4.81,8.95,-151.29,-312.87,223.26,1
14321,-4.45,5.07,8.96,-120.68,-287.62,260.34,1
14347,-1.57,4.32,9.54,-91.47,-238.17,283.02,1
14372,0.93,3.38,10.41,-61.41,-204.03,300.82,1
14396,3.23,2.82,10.48,-23.73,-220.98,316.5,1
14422,4.59,1.64,9.34,23.16,-227.44,317.96,1
14446,6.87,0.84,8.63,71.94,-124.7,295.76,1
14472,8.77,-0.01,8.3,112.36,-39.52,270.22,1
14496,9.6,-1.05,8.24,138.1,-69.33,247.23,1
14521,10.94,-2.34,7.47,170.6,-72.38,218.75,1
14547,11.09,-2.72,6.19,190.72,-50.98,188.33,1
14571,12.6,-2.95,5.28,206.51,-34.33,155.64,1
14596,13.47,-3.39,4.49,214.99,-31.89,121.56,1
14621,13.56,-2.87,3.38,206.63,-48.3,77.78,1
14646,14.49,-2.45,3.14,195.78,-46.53,30.89,1
14671,15.22,-3,2.43,198.4,-33.78,-19.66,1
14696,14.56,-3.79,1.59,202.49,-52.26,-77.59,1
14721,14.04,-2.95,0.55,192.24,-44.76,-129.17,1
14746,13.17,-2.59,-0.09,183.58,-27.26,-165.76,1
14771,11.7,-1.24,-0.87,165.9,-60.43,-187.4,1
14795,10.46,-0.14,-2.04,148.95,-87.63,-203.19,1
14821,8.55,1.16,-3.5,137.18,-104.64,-218.01,1
14846,6.49,2.1,-4.96,117.73,-99.94,-235.33,1
14870,5.03,2.85,-5.95,84.62,-57.38,-244.66,1
14896,5.46,3.83,-6.22,56.27,-11.16,-237.1,1
14920,4.03,3.97,-6.36,37.91,-49.82,-227.95,1
14945,2.62,4.22,-7.01,14.19,-43.36,-228.93,1
14971,2.09,4.73,-7.34,-15.5,18.35,-230.63,1
14995,2.37,5.66,-7.32,-44.22,26.28,-235.63,1
15020,0.99,5.2,-7.21,-69.83,-33.97,-245.02,1
15045,-0.48,4.63,-6.33,-95.87,-39.52,-247.1,1
15070,-2.1,4.3,-6.08,-107.94,-28.24,-239.6,1
15095,-3.58,3.8,-6.51,-117.39,-47.02,-227.16,1
15120,-4.45,3.9,-6.86,-136.41,-55.55,-206.67,1
15145,-5.54,4.61,-5.11,-168.73,-95.43,-181.06,1
15169,-7.3,4.95,-2.98,-202.27,-192.75,-138.5,1
15195,-9.27,4.73,-1.96,-213.12,-251.16,-66.79,1
15219,-10.19,5.9,2.46,-191.66,-224.33,4.67,1
15244,-9.91,5.34,3.88,-177.14,-212.26,62.84,1
15270,-8.43,5.07,5.61,-176.17,-222.44,107.53,1
15294,-6.47,5.03,7.6,-164.77,-209.45,141.31,1
15320,-4.66,5.08,9.11,-142.15,-176.47,164.12,1
15344,-3.42,4.25,11.15,-116.47,-166.28,180.7,1
15369,-1.45,4.23,12.42,-84.34,-152.26,199.48,1
15395,-0.13,3.42,13.32,-50.8,-162.93,224.42,1
15419,0.61,2.65,12.51,-13.49,-185.49,249.79,1
15445,1.88,1.68,13.02,30.23,-153.36,265.22,1
15469,7.05,0.45,14.4,88.71,-19.03,262.47,1
15494,10.25,-0.06,13.97,143.58,43.71,246.19,1
15519,10.51,0.23,12.39,181.14,-95.13,216.25,1
15544,9.01,-0.7,9.57,214.13,-145.25,164.18,1
15570,10.41,-1.21,9.13,247.06,43.1,121.44,1
15594,10.57,-1.03,9.03,273.64,60.3,107.59,1
15619,10.22,-0.66,6.85,283.03,-68.97,87.23,1
15644,11.46,-0.54,6.06,284.13,-38.85,52.05,1
15669,12.36,-0.83,4.86,289.8,37.25,27.29,1
15694,12.49,-0.75,3.24,290.35,-29.52,2.41,1
15719,11.36,-0.08,1.65,280.53,-77.75,-32.77,1
15744,12.64,-0.31,-0.79,267.85,-26.83,-66.55,1
15768,11.52,0.02,-1.9,245.9,-27.2,-91.12,1
15794,10.92,0.53,-3.4,218.89,-69.09,-111.61,1
15818,10.3,0.96,-5.68,182.49,-96.71,-129.84,1
15843,8.52,1.68,-6.19,140.6,-101.59,-142.65,1
15869,7.33,2.66,-6.81,93.95,-97.08,-150.57,1
15893,5.66,2.81,-6.97,62.61,-121.1,-161.98,1
15918,4.18,3.26,-7.71,46.94,-106.47,-180.63,1
15943,2.8,3.97,-8.26,29.62,-44.03,-200.82,1
15968,3.16,3.95,-8.64,6.27,-6.04,-212.22,1
15993,1.08,4.09,-8.94,-19.4,-58.3,-204.9,1
16017,0.14,3.96,-8.66,-53,-68.17,-191.18,1
16043,-0.95,3.89,-8.28,-80.74,-80.92,-177.46,1
16067,-1.73,3.82,-8.06,-97.69,-98.78,-168.62,1
16092,-2.16,4.03,-7.95,-117.57,-90.37,-164.05,1
16117,-2.57,3.93,-7.72,-137.82,-85.43,-167.1,1
16142,-2.99,3.85,-6.76,-161.6,-97.5,-177.46,1
16167,-4.37,3.2,-4.14,-196.66,-131.1,-182.83,1
16192,-6.98,2.91,-2.39,-232.69,-196.1,-165.39,1
16217,-9.3,3.66,0.05,-245.68,-211.16,-108.07,1
16242,-10.15,4.66,3.14,-239.16,-207.32,-35.27,1
16267,-10.4,5.9,6.03,-211.72,-241.89,38.88,1
16292,-9.53,6.76,7.7,-164.89,-269.21,105.64,1
16317,-7.7,6.78,8.08,-115.74,-249.33,160.03,1
16342,-6.69,6.36,7.34,-87.21,-267.01,200.52,1
16367,-5.36,5.85,7.14,-74.34,-268.54,228.02,1
16392,-2.17,4.56,9.54,-57.63,-182.69,252.84,1
16416,0.12,4.14,11.39,-33.91,-153.23,282.72,1
16442,2.6,3.64,12.25,-1.48,-250.92,306.86,1
16467,4.29,2,10.15,57.37,-290.79,318.63,1
16491,4.84,0.37,8.31,101.27,-247.56,318.69,1
16517,7.49,-0.89,7.42,141.02,-105.73,295.28,1
16541,11.09,-1.22,7.15,184.13,21.7,255.58,1
16567,12.02,-1.69,7.22,213.03,-2.02,213.63,1
16592,13.25,-2.98,6.3,236.94,-43.54,163.08,1
16616,14.26,-3.53,4.57,256.02,3.47,112.29,1
16642,14,-2.52,2.9,257.12,-0.61,67.9,1
16666,14.75,-2.66,2.37,243.09,-12.14,23.69,1
16691,14.33,-2.7,1.89,221.33,-14.94,-23.87,1
16717,13.72,-2.49,0.99,204.31,-26.1,-68.74,1
16741,13.77,-1.63,0.06,192.67,-14.39,-107.34,1
16766,13.22,-1.05,-0.4,182,-13.6,-138.44,1
16791,12.28,-0.7,-1.17,168.34,-31.77,-165.27,1
16816,11.16,0.66,-2.39,153.95,-44.76,-185.88,1
16840,9.73,1.79,-3.14,141.94,-55.37,-205.33,1
16866,7.59,2.49,-4.42,126.14,-58.48,-222.89,1
16891,6.76,2.87,-4.84,103.34,-47.32,-229.6,1
16916,5.43,3.97,-6.04,81.21,-52.44,-217.89,1
16941,4.09,4.57,-6.34,58.34,-85.49,-203.26,1
16965,2.6,4.78,-7.02,35.6,-71.35,-211.91,1
16990,1.98,5.04,-7.13,19.38,20.67,-229.78,1
17016,1.62,5.23,-6.58,13.22,56.4,-239.9,1
17040,0.85,5.04,-6.7,12.3,12.43,-240.02,1
17065,-0.65,4.64,-7.15,0.96,13.84,-241.91,1
17089,-1.63,4.88,-7.11,-10.99,50.36,-236.73,1
17115,-1.26,4.56,-6.99,-20.8,39.51,-222.34,1
17139,-3.19,4.69,-7.85,-45.68,-42.81,-211.06,1
17164,-4.85,4.38,-6.9,-90.32,-80.19,-193.26,1
17190,-7.51,4.79,-3.08,-132.39,-144.52,-153.74,1
17214,-11.52,4.9,-2.96,-155.62,-220.37,-78.62,1
17239,-11.78,6.31,0.17,-148.49,-182.08,-1.31,1
17264,-10.76,6.1,1.27,-125.07,-135.12,54.79,1
17289,-9.81,7.14,1.52,-110.56,-158.78,94.49,1
17315,-8.87,6.96,1.87,-105.19,-151.04,127.66,1
17339,-7.4,6.88,2.7,-103.12,-112.69,162.17,1
17364,-5.69,6.52,3.78,-100.56,-125.25,193.2,1
17389,-3.54,6.71,4.42,-105.07,-168.97,216.98,1
17414,-2.29,7.02,5.43,-105.68,-188.36,241.74,1
17439,-1.35,5.75,6.21,-93.85,-188.42,271.5,1
17464,0.84,5.14,7.09,-74.52,-186.28,301.13,1
17489,2.39,4.08,7.58,-44.77,-214.58,328.63,1
17514,3.65,2.87,5.68,-5.99,-259.94,347.47,1
17539,5.21,1.6,4.18,26.82,-232.81,350.95,1
17563,7.04,0.23,4.45,56.45,-117.99,336.01,1
17589,10.52,-1.69,5.84,94.68,-16.96,302.11,1
17614,12.42,-1.85,5.64,135.41,-25.55,256.8,1
17638,14.01,-2.73,4.32,171.02,-31.22,196.37,1
17664,15.71,-3.63,4.02,191.45,27.86,128.45,1
17688,15.52,-3.56,3.19,198.77,-5.98,64.97,1
17713,15.54,-3.43,2.53,189.31,-42.63,3.39,1
17738,14.42,-3.81,1.38,183.46,-15.07,-51.12,1
17763,13.93,-4.11,1.25,172.79,10.91,-92.16,1
17788,14.33,-3.09,0.79,161.82,-3.97,-123.44,1
17813,14.62,-1.84,0.32,151.45,-17.87,-153.26,1
17838,12.9,-1.21,-0.38,141.08,-48.91,-185.51,1
17862,11.57,-0.56,-0.99,132.12,-38.42,-212.83,1
17888,10.83,0.43,-1.47,131.63,-4.52,-228.38,1
17913,9.2,1.22,-2.07,129.74,-32.93,-237.58,1
17937,8.03,2.07,-3.09,115.78,-47.87,-242.65,1
17963,7.07,3.47,-4.18,100.78,-41.83,-243.74,1
17987,5.87,4.46,-4.63,86.88,-41.22,-251.61,1
18012,4.77,4.48,-4.76,77.55,-30.37,-263.56,1
18037,2.95,5.2,-5.62,62.67,-34.94,-264.54,1
18062,2.34,5.17,-6.29,52.73,-45.92,-258.8,1
18087,0.31,5.4,-7.24,35.72,-9.39,-267.89,1
18112,0.08,4.84,-7.3,24.13,45.42,-275.57,1
18137,-1.91,4.51,-6.81,13.83,60.79,-269.6,1
18161,-4.74,4.53,-7.65,-0.56,23.9,-254.23,1
18186,-4.77,3.77,-9.31,-20.74,18.59,-232.58,1
18212,-5.59,4.25,-9.61,-57.57,14.2,-200.82,1
18236,-6.11,3.91,-9.46,-104.65,-52.75,-164.6,1
18261,-6.89,3.35,-8.34,-161.29,-154.7,-124.6,1
18286,-7.98,2.71,-7.08,-216.66,-192.08,-68.2,1
18311,-6.06,3.22,-4.69,-264.1,-205.79,-16.06,1
18335,-5.05,3.22,-0.95,-293.61,-250.79,16.62,1
18361,-4.37,3.01,2.22,-304.7,-281.4,36.56,1
18386,-4.93,3.56,5.38,-292.45,-289.09,60.64,1
18410,-5.76,3.86,8.13,-261.47,-317.07,88.63,1
18436,-4.14,4.16,11.03,-222.14,-334.51,114.12,1
18460,-4.22,2.58,13.27,-168.91,-315.67,144.85,1
18486,-3.53,1.97,13.92,-112.08,-263.17,167.41,1
18511,-1.11,2.21,14.83,-60.68,-162.69,183.08,1
18536,2.33,1.93,15.93,-5.81,-69.03,194.91,1
18561,3.16,0.4,16.31,54.32,-104.52,201.8,1
18585,3.51,-0.3,14.11,103.52,-145.06,205.03,1
18611,4.76,0.86,11.41,143.77,-107.32,203.94,1
18635,6.56,0.87,9.96,176.08,-54.27,201.13,1
18660,8.5,-0.97,8.83,204.38,-64.15,195.28,1
18686,7.46,-0.36,6.66,212.24,-128.84,170.52,1
18710,7.17,0.11,5.19,212.91,-100.67,159.85,1
18736,7.17,-0.45,5.09,209.19,-50.13,162.29,1
18760,8.61,-1.07,4.24,206.08,-43.85,162.35,1
18785,11.17,-0.26,3.21,200.35,-54.82,149.73,1
18811,12.05,-0.38,1.65,189.44,-98.36,122.05,1
18835,13.64,-1.65,1.11,177,-76.89,72.29,1
18860,15.3,-1.61,0.92,170.17,-19.94,7.96,1
18885,15.31,-0.65,0.27,165.96,-44.52,-51.79,1
18910,14.34,-0.38,0.1,159.74,-66.59,-108.44,1
18935,13.46,-0.53,1.18,161.51,-25.43,-161.49,1
18960,12.82,-0.17,1.82,178.4,-23.91,-197.77,1
18985,10.24,0.41,0.45,200.41,-93.48,-221.79,1
19009,7.44,0.56,-1.82,205.41,-109.15,-241.85,1
19035,5.61,1.43,-4.31,193.46,-40.92,-251.79,1
19059,5.8,2.41,-5.39,174.5,0.06,-240.02,1
19084,4.49,3.3,-6.65,151.39,-64.03,-224.48,1
19110,2.92,3.32,-8.04,121.14,-80.13,-219.66,1
19134,3.27,3.98,-8.27,90.66,-9.27,-221.37,1
19159,1.79,4.12,-8.19,73.04,-16.53,-226.18,1
19184,0.65,3.62,-9.09,57.55,-20.19,-228.5,1
19209,0.17,3.8,-10.84,33.52,40.54,-228.44,1
19234,-0.72,3.64,-11.96,-4.89,4.75,-224.54,1
19259,-2.12,2.72,-12.53,-58.24,-47.81,-215.27,1
19284,-3.8,2.16,-12.63,-114.71,-56.35,-195.27,1
19308,-4.63,1.73,-11.13,-165.86,-66.1,-165.57,1
19334,-4.82,1.87,-9.69,-207.33,-126.22,-133.44,1
19358,-4.43,2.01,-7.65,-251.23,-192.5,-107.83,1
19384,-4.05,1.36,-4.36,-302.14,-260.37,-86.79,1
19409,-4.46,2.13,0.26,-341.66,-352.38,-47.83,1
19433,-7.1,2.95,5.29,-320.8,-417.44,22.6,1
19459,-5.77,2.95,6.94,-271.23,-376.59,68.81,1
19483,-4.55,5.24,8.04,-239.71,-262.01,84.42,1
19508,-3.84,5.56,10.94,-190.68,-182.2,91.56,1
19534,-3.55,5.25,13.32,-129.28,-162.26,104.42,1
19558,-3.72,4.6,12.74,-76.54,-146.83,128.81,1
19584,-3.62,4.28,10.96,-46.29,-144.88,159.3,1
19608,-2.4,3.86,11.26,-31.84,-107.08,189.79,1
19633,0.84,3.97,13.36,-6.41,-67.75,221.01,1
19658,1.88,2.24,14.43,28.95,-135.55,250.22,1
19683,4.05,1.05,12.65,75.72,-231.16,268.39,1
19708,4.77,0.45,9.69,119.38,-240.18,268.51,1
19733,7.69,1.04,7.85,148.28,-172.38,264.48,1
19758,7.1,-1.39,6.96,181.21,-199.58,257.84,1
19783,7.4,-2.46,5.05,209.8,-190.61,238.93,1
19808,9.89,-2.92,4.64,232.12,-77.75,206.19,1
19833,11.25,-3.4,3.19,243.4,-26.1,173.75,1
19858,12.54,-3.06,1.94,231.94,-90.31,134.73,1
19883,13.69,-3.42,0.58,215.53,-79.76,85.64,1
19907,13.78,-4.12,-0.21,197.91,-50.74,32.17,1
19933,14.34,-3.48,-0.75,180.23,-48.6,-23.99,1
19957,14.46,-2.04,-0.49,151.08,-48.66,-79.35,1
19982,13.68,-2.14,0.13,130.96,-42.69,-128.13,1
20008,12.84,-2.11,0.19,134.01,-44.21,-165.15,1
20032,11.49,-1.16,-0.31,146.94,-51.22,-192.16,1
20058,10.16,-0.42,-0.96,150.6,-51.1,-214.35,1
20082,8.67,-0.01,-1.93,151.69,-35.98,-230.15,1
20107,7.54,0.81,-3.74,151.63,-29.03,-233.19,1
20133,7.4,1.91,-5.24,146.57,-31.35,-228.93,1
20157,6,2.27,-6.66,129.68,-63.97,-226.91,1
20182,5.49,2.73,-7.86,102.18,-70.06,-225.33,1
20207,4.23,3.74,-8.46,70.17,-65.67,-221.37,1
20232,3.01,3.8,-8.48,43.77,-64.88,-225.76,1
20256,2.04,3.94,-8.51,21.27,-56.35,-230.76,1
20282,0.87,3.99,-8.37,-1.23,-44.46,-233.13,1
20307,-0.36,3.82,-8.2,-20.07,-50.19,-236.97,1
20331,-1.29,4.31,-8.55,-48.43,-40.25,-239.9,1
20356,-2.48,4.28,-8.22,-79.22,-26.53,-240.39,1
20381,-2.79,3.26,-7.43,-105.32,2.86,-240.88,1
20406,-5.28,3.32,-7.41,-127.57,-19.33,-231.85,1
20431,-5.83,3.29,-7.44,-161.78,-38.48,-224.29,1
20456,-6.94,2.07,-5.59,-205.32,-84.27,-208.26,1
20481,-9.13,2.15,-3.72,-242.39,-127.93,-169.78,1
20506,-9.38,2.69,-1.06,-256.47,-147.14,-107.53,1
20531,-11.05,3.97,2.2,-252.63,-235.37,-37.71,1
20555,-11.64,4.62,5.9,-210.19,-297.87,51.44,1
20581,-12.27,5.54,6.8,-141.05,-299.57,145.46,1
20606,-10.54,4.8,7.1,-88.55,-269.33,220.52,1
20631,-7.76,4.14,6.45,-70.68,-256.53,267.9,1
20656,-3.37,3.89,7.32,-70.8,-236.71,298.32,1
20680,-1.42,3.55,8.28,-73.91,-270.73,324.91,1
20706,1.26,2.8,9.68,-50.32,-294.7,352.04,1
20731,2.94,1.96,9.95,-7.15,-295.67,372.65,1
20755,3.56,-0.28,8.7,45.17,-279.27,375.15,1
20781,7.01,-0.95,7.83,100.9,-141.53,349.67,1
20805,10.68,-2.33,8.59,153.89,-6.41,305.52,1
20830,12.26,-2.93,8.26,196.63,-44.27,258.51,1
20856,12.84,-3.85,7.32,242.61,-84.09,200.76,1
20880,13.3,-4.14,5.56,266.69,-11.16,140.95,1
20906,14.59,-3.78,5.43,269.8,26.7,88.08,1
20930,14.43,-3.74,3.81,270.35,-41.77,39.67,1
20955,13.86,-4.05,1.94,256.81,-52.14,-10.76,1
20980,13.48,-4.14,0.34,232.06,-4.76,-55.88,1
21005,13.68,-3.46,-0.04,201.27,-12.63,-88.81,1
21030,14.41,-2.33,-0.61,173.52,-31.16,-116.73,1
21055,13.45,-1.11,-1.43,153.77,-53.05,-149.84,1
21080,12.1,-0.06,-2.18,134.5,-55.06,-187.46,1
21104,11.99,0.56,-2.24,116.39,-7.81,-215.45,1
21130,10.98,1.2,-2.45,107.67,-25.37,-227.28,1
21155,9.26,2.41,-3.28,94.99,-80.43,-235.51,1
21179,7.79,3.4,-3.86,81.88,-51.83,-253.56,1
21205,6.39,3.82,-4.45,73.22,-11.16,-272.58,1
21229,5.3,4.12,-4.39,67.67,-26.41,-281.49,1
21254,3.64,4.5,-4.72,60.72,-44.7,-286.55,1
21279,1.6,4.26,-5.35,46.27,-44.88,-294.05,1
21304,-0.54,4.19,-6.14,27.61,-23.36,-302.28,1
21329,-0.71,3.73,-6.36,17.55,53.23,-305.02,1
21354,-3.12,3.72,-6.93,12.3,35.67,-291.67,1
21379,-4.05,2.73,-7.88,-6.54,14.63,-264.78,1
21403,-6.35,3.52,-8.2,-35.07,-9.39,-227.46,1
21428,-7.23,3.41,-7.47,-63.73,-34.33,-180.63,1
21454,-8.15,4.1,-6.9,-105.07,-108.97,-130.63,1
21478,-10.63,5.08,-5.19,-141.78,-172.56,-67.16,1
21503,-11.33,4.66,-3.5,-158.3,-159.15,-0.09,1
21528,-11.02,4.94,-1.56,-168.61,-183.9,57.17,1
21553,-10.72,4.84,-0.48,-179.28,-242.2,113.45,1
21578,-9.29,5.12,0.35,-194.46,-237.08,163.94,1
21603,-7.81,4.77,1.75,-207.82,-224.7,205.52,1
21628,-5.49,4.25,4.59,-210.07,-239.7,238.63,1
21653,-3.47,3.6,6.48,-197.51,-257.44,269.73,1
21678,-1.15,3.17,8.38,-173,-269.27,298.51,1
21703,0.85,2.58,9.86,-132.51,-287.07,323.26,1
21728,2.53,1.37,9.92,-78.67,-289.33,341.25,1
21753,5.71,0.52,9.04,-30.62,-248.05,340.21,1
21778,6.87,-0.85,8.13,12.91,-200,319.6,1
21803,11.03,-2.51,9.26,57.61,-76.77,281.07,1
21827,12.2,-2.93,9.95,113.58,-52.81,247.29,1
21853,12.33,-3.79,7.52,155.72,-140.55,201.19,1
21877,13.41,-3.36,5.37,182.73,-82.93,141.37,1
21903,13.43,-3.79,5.29,200.72,-8.05,91.62,1
21928,12.23,-3.45,5.1,202.73,-83.6,50.1,1
21952,11.73,-3.19,4.04,210.84,-82.08,17.17,1
21978,12.1,-3.32,3.17,220.11,-21.77,-7.4,1
22002,12.98,-2.83,3.62,219.01,-37.81,-35.64,1
22027,13.62,-1.95,2.34,221.27,-51.77,-70.57,1
22053,13.42,-1.84,0.89,227.61,-43.91,-110.51,1
22077,12.88,-2.01,-0.16,217.91,-51.28,-151.73,1
22102,12.58,-0.9,-0.72,194.38,-26.83,-182.65,1
22127,11.11,-0.41,-1.43,182.61,-37.38,-205.39,1
22152,9.28,-0.01,-2.41,173.03,-56.47,-215.15,1
22176,8.56,0.69,-2.91,161.39,-42.26,-210.94,1
22202,7.9,2.15,-4.08,151.45,-64.03,-204.48,1
22227,6.27,2.77,-5.21,135.53,-94.7,-211.24,1
22251,5.07,2.83,-6.46,117.79,-57.81,-223.62,1
22277,4.24,3.01,-7.42,99.68,-12.69,-225.45,1
22301,3.91,4.17,-8.02,76.27,-10,-218.01,1
22326,3.93,4.22,-8.64,39.5,-27.2,-211.12,1
22352,3.29,4.68,-8.66,-0.01,-23.66,-208.99,1
22376,1.67,4.41,-9.2,-25.99,-47.08,-219.66,1
22401,-0.58,3.97,-9.07,-55.93,-46.35,-236.67,1
22426,-0.92,3.49,-8.6,-80.19,-8.54,-232.95,1
22451,-2.7,3.15,-8.36,-102.08,-54.39,-217.71,1
22475,-3.99,2.62,-8.79,-129.52,-98.24,-199.6,1
22500,-4.49,2.85,-8.14,-163.91,-99.76,-172.83,1
22526,-5.48,2.89,-6.63,-200.8,-153.78,-145.09,1
22550,-7.15,3.34,-3.98,-237.14,-242.01,-112.83,1
22576,-7.92,3.7,-1.31,-258.18,-279.88,-60.09,1
22600,-8.66,3.07,0.32,-249.16,-270.06,-2.83,1
22625,-7.33,3.88,2.1,-237.69,-243.11,33.63,1
22651,-6.83,3.16,4.92,-217.94,-212.62,59.3,1
22675,-6.31,3.43,7.92,-187.94,-172.5,87.47,1
22700,-6.11,3.08,9.92,-160.5,-172.93,122.66,1
22725,-5.44,2.82,12.44,-134.52,-191.16,159.06,1
22750,-3.68,3.12,14.65,-98.85,-184.82,201.5,1
22776,-1.12,1.44,15.95,-52.21,-179.15,249.67,1
22800,-0.13,1.6,15.8,5.29,-221.4,295.34,1
22825,1.99,0.38,14.63,76.15,-225.73,327.78,1
22850,5.53,-2.98,12.83,141.39,-153.42,339.73,1
22875,8.66,-1.75,10.96,188.16,-99.03,330.21,1
22900,9.01,-2.29,7.13,214.31,-150.31,297.17,1
22925,8.87,-3.12,6.29,227.73,-150.67,251.56,1
22950,10.35,-4.05,6.07,234.38,-19.09,208.2,1
22975,12.51,-4.25,5.54,240.96,20.73,176.25,1
23000,13.54,-3.89,3.75,236.27,-72.87,135.89,1
23025,14.09,-3.85,1.82,216.81,-67.26,82.47,1
23050,16.37,-3.77,2.01,195.35,20.36,28.02,1
23075,17.35,-3.64,2.31,184.13,-9.52,-34.66,1
23100,16.42,-2.74,-0.06,173.16,-93.6,-106.37,1
23125,16.55,-1.72,-0.76,157.12,-37.14,-166.55,1
23149,14.61,-0.96,-0.54,139.68,-46.47,-207.65,1
23175,12.28,0.31,-0.34,120.96,-99.64,-234.35,1
23199,9.93,1.79,-1.45,114.74,-88.05,-251.3,1
23224,7.43,2.36,-2.97,117.12,-73.91,-265.88,1
23250,5.86,3.52,-4.65,109.32,-57.26,-272.46,1
23274,4.59,4.44,-5.54,86.27,-40.06,-264.17,1
23299,3.37,4.6,-6.67,54.13,-70.98,-251.06,1
23324,1.53,4.73,-6.58,21.33,-46.77,-252.83,1
23349,-0.93,5.37,-6.81,-0.44,7.07,-261.73,1
23374,-0.7,4.61,-6.81,-15.99,18.47,-257.77,1
23399,-1.97,4.21,-6.62,-31.84,-15.61,-250.15,1
23424,-3.34,4.21,-7.07,-50.68,-9.52,-242.46,1
23448,-4.89,3.51,-7.62,-72.63,2.43,-235.57,1
23473,-6.55,3.36,-7.19,-99.89,-3.6,-221.49,1
23498,-7.31,2.95,-6.69,-129.77,-29.03,-187.28,1
23523,-7.31,3.37,-4.91,-175.32,-113.11,-150.82,1
23548,-8.45,2.96,-1.99,-224.89,-203.48,-104.11,1
23573,-10.17,3.03,0.1,-249.77,-263.11,-36.31,1
23598,-11.84,4.3,2.53,-246.53,-275.55,31.01,1
23623,-9.96,4.36,6.47,-221.29,-256.77,86.07,1
23648,-7.41,5,8.88,-180.32,-242.32,134.73,1
23673,-5.35,6,10,-132.88,-294.57,177.84,1
23698,-4.37,5.16,9.81,-76.66,-339.21,211.5,1
23723,-3.26,3.99,8.83,-37.63,-265.92,235.58,1
23747,0.07,3.22,9.24,-15.13,-160.61,255.22,1
23773,2.64,1.78,9.45,0.41,-144.52,268.69,1
23797,5.14,1.71,10.22,24.68,-166.04,275.15,1
23823,6,0.88,10.22,63.46,-181.77,281.19,1
23848,7.71,-0.75,9.04,102.3,-167.32,277.65,1
23872,10.16,-1.16,8.82,136.02,-96.53,261.25,1
23898,10.94,-2.4,8.49,170.9,-91.41,233.69,1
23922,12.02,-2.69,7.15,208.89,-99.64,188.57,1
23947,12.56,-3.39,6.12,237.97,-45,134.91,1
23973,12.76,-3.39,5.74,251.14,-16.35,91.01,1
23997,13.3,-3.57,5.02,254.5,-39.27,54.24,1
24022,14.05,-4.32,3.76,257.73,-49.15,14.55,1
24047,15.08,-3.96,2.14,259.62,-29.15,-28.62,1
24072,15.05,-2.52,1.14,246.81,-47.2,-75.09,1
24096,14.01,-2.44,0.26,231.14,-61.95,-125.94,1
24122,12.77,-2.1,-1.23,218.22,-51.71,-169.78,1
24147,12.58,-1.5,-1.96,207.97,-24.33,-196.73,1
24172,10.9,-0.55,-3.45,197.3,-52.08,-213.74,1
24197,8.82,0.3,-4.78,175.9,-84.94,-226,1
24221,7.56,1.07,-5.96,148.83,-79.52,-236.97,1
24247,6.38,1.95,-6.75,125.54,-45.19,-248.62,1
24272,5.23,3.02,-7.23,104.99,-52.38,-252.58,1
24296,3.06,3.23,-7.58,82,-68.36,-254.05,1
24322,1.97,3.36,-8.05,58.77,-25.8,-254.17,1
24346,0.82,3.67,-8.12,43.52,-10.61,-251.24,1
24371,-0.32,3.62,-8.59,27.61,-13.11,-253.8,1
24397,-1.48,3.66,-8.88,5.05,17.74,-248.07,1
24421,-1.76,4.2,-9.13,-20.62,13.78,-224.35,1
24446,-2.67,4.02,-9.51,-54.52,-66.65,-197.28,1
24470,-3.28,3.54,-9.33,-91.41,-107.2,-171.37,1
24496,-3.66,3.48,-8.7,-121.05,-109.76,-147.65,1
24520,-4.66,3.18,-8.24,-150.07,-131.77,-138.07,1
24546,-5.38,2.99,-7.88,-187.45,-147.75,-136.79,1
24571,-6.41,1.53,-6.53,-233.67,-167.5,-130.51,1
24595,-8.04,2.99,-3.56,-280.13,-203.72,-96.31,1
24621,-9.75,2.57,-1.29,-288.49,-247.87,-24.23,1
24645,-9.43,2.23,3.71,-265.5,-290.79,59.24,1
24671,-8.07,6.24,7.13,-238,-343.05,127.35,1
24696,-6.58,6.06,10.74,-162.39,-359.82,173.39,1
24720,-5.52,5.03,9.62,-77.94,-319.7,194.97,1
24746,-5.65,2.79,6.9,-45.19,-253.78,211.98,1
24770,-2.79,2.82,6.67,-52.09,-148.36,235.76,1
24795,1.22,1.74,9.66,-54.22,-81.95,265.89,1
24820,3,0.28,11.91,-42.39,-169.45,295.28,1
24845,5.68,-0.36,11.02,-9.16,-273.29,317.84,1
24870,7.21,-1.46,9.34,33.65,-294.51,331.86,1
24895,8.92,-2.34,8.4,75.35,-247.75,336.74,1
24920,9.28,-4.21,7.75,132.36,-241.34,321.07,1
24945,10.26,-5.55,6.74,194.99,-153.66,271.98,1
24970,12.92,-5.89,6.31,241.2,-26.47,212.72,1
24995,13.56,-5.86,4.52,264.13,-62.32,157.23,1
25020,13.85,-5.7,2.55,256.63,-101.59,93.51,1
25045,14.37,-5.93,1.84,239.56,-29.09,38.51,1
25069,14.81,-5.62,2.55,225.47,-28.42,-4.97,1
25095,14.74,-4.65,1.97,218.58,-85.13,-53.44,1
25119,13.73,-4.12,0.41,205.78,-78.6,-105.09,1
25145,13.73,-4.33,0.52,190.35,-34.27,-152.04,1
25170,13.12,-3.71,-0.13,187.85,-37.63,-190.27,1
25194,12.17,-2.36,-1.03,193.03,-48.78,-214.9,1
25220,11.24,-1.79,-1.63,190.29,-38.24,-233.62,1
25244,10.19,-0.91,-2.19,177.61,-42.32,-246,1
25270,8.62,0.23,-3.74,164.07,-56.1,-246.06,1
25295,8.13,1.93,-4.96,147.06,-57.93,-240.21,1
25319,7.28,2.32,-5.39,127.67,-71.41,-241.73,1
25345,5.37,3,-6.59,108.34,-72.69,-249.84,1
25369,4.83,3.35,-7.72,88.1,-54.03,-255.82,1
25394,3.59,4.01,-8.37,62.43,-50.13,-255.63,1
25418,2.08,3.93,-8.12,41.02,-25.92,-263.26,1
25444,0.86,3.46,-8.18,26.21,5.85,-268.93,1
25469,-0.75,3.54,-7.97,13.1,-1.77,-261.85,1
25493,-1.45,3.03,-9,2.24,-9.46,-248.26,1
25519,-2.55,3.32,-9.79,-21.72,-30.25,-234.66,1
25543,-3.35,3.2,-9.92,-52.39,-67.81,-210.21,1
25568,-4.55,3.14,-9.4,-90.8,-85.74,-184.78,1
25593,-5.6,2.84,-8.77,-130.62,-123.42,-167.89,1
25618,-6.23,2.08,-8.23,-176.35,-149.88,-149.66,1
25643,-8.59,2.5,-6.07,-215.86,-185.8,-116.18,1
25668,-10.13,3.3,-2.84,-233.36,-200.73,-65.15,1
25693,-11.6,4.68,1.44,-234.64,-232.32,-1.73,1
25717,-11.48,5.09,4.81,-210.38,-275.06,64.97,1
25743,-10.66,6.38,7.38,-158.43,-276.34,125.89,1
25768,-9.87,5.93,8.19,-96.66,-246.71,176.25,1
25793,-8.36,5.07,7.42,-61.11,-197.81,211.37,1
25818,-4.82,4.74,7.85,-57.63,-128.54,236.56,1
25842,-1.82,4.67,9.58,-44.1,-106.04,257.65,1
25868,-0.1,3.72,9.46,-15.2,-170.49,269.54,1
25893,0.22,3.81,8.27,14.19,-215.19,275.22,1
25917,1.55,2.94,7.47,31.57,-155.67,285.46,1
25943,4.27,2.02,7.93,48.46,-113.17,295.21,1
25967,7.47,0.7,8.09,79.38,-130.61,293.2,1
25992,7.96,0.4,7.41,116.39,-134.94,272.84,1
26018,9.06,-0.71,6.13,149.5,-97.81,240.03,1
26042,12.04,-1.03,6.18,176.57,-14.33,196.74,1
26067,12.93,-2.01,5.96,198.77,-28.78,153.63,1
26092,12.93,-2.1,4.74,219.8,-67.02,106.01,1
26117,13.93,-2.1,2.96,232.85,-20.25,54.49,1
26142,14.35,-2.28,2.17,233.95,3.23,7.35,1
26167,14.47,-1.97,1.14,225.41,-17.38,-34.11,1
26192,14.58,-1.52,0.3,217.97,-11.41,-75.09,1
26216,14.6,-1.68,-0.34,218.89,-4.64,-115.39,1
26242,13.59,-1.78,-1.69,214.25,-21.1,-151.73,1
26266,12.5,-1.21,-3.34,196.51,-20.13,-181.49,1
26292,11.66,0.47,-4.96,175.41,-27.87,-200.76,1
26317,10.22,1.82,-5.76,151.45,-70.86,-214.41,1
26341,8.14,1.29,-6.11,128.58,-80.86,-233.13,1
26367,6.32,2.44,-7.64,111.82,-60.49,-247.28,1
26391,5.32,3.33,-8.59,93.89,-50.92,-259.05,1
26416,3.48,3.81,-8.86,69.86,-27.44,-275.27,1
26441,2.72,3.12,-8.81,49.44,6.64,-289.54,1
26466,0.85,2.82,-9.17,34.38,-14.94,-294.78,1
26491,-1.42,2.62,-9.93,11.15,-21.1,-291.55,1
26516,-2.69,1.81,-10.51,-11.29,5.3,-271.61,1
26541,-5.26,2.47,-10.9,-39.34,-27.26,-242.46,1
26565,-5.48,2.6,-10.93,-73.61,-79.45,-197.28,1
26591,-5.35,2.75,-10.44,-119.95,-131.04,-149.35,1
26616,-6,2.59,-9.44,-175.44,-188.54,-111.67,1
26640,-6.31,2.29,-7.85,-228.67,-230.31,-77.28,1
26666,-6.44,3.12,-4.67,-270.68,-245.86,-45.76,1
26690,-6.76,3.96,-1.21,-287.81,-290.37,-4.23,1
26715,-8.87,3.91,2.06,-280.01,-328.66,48.51,1
26740,-7.69,4.97,5.06,-247.81,-340.31,97.78,1
26765,-6.01,6.15,8.03,-198.24,-308.35,134.97,1
26791,-5.91,4.68,9.81,-141.11,-264.09,159.67,1
26815,-4.15,4.73,10.55,-100.8,-212.69,176.68,1
26840,-2.31,3.92,12.09,-64.16,-145.43,192.47,1
26865,1.7,1.85,13.12,-27.33,-99.7,210.83,1
26890,1.25,3.28,13.34,3.65,-135.37,226.07,1
26915,3.58,2.07,13.18,45.23,-159.33,241.19,1
26940,5.2,1.46,12.48,89.62,-172.14,255.03,1
26965,7.12,-0.43,10.65,138.46,-171.83,261.5,1
26990,8.14,0.25,7.51,177.67,-152.56,242.35,1
27015,8.92,-0.43,5.45,199.38,-92.75,204.42,1
27039,10.46,-1.35,5.57,214.44,-21.16,166.92,1
27065,11.37,-1.25,4.65,226.27,-18.48,138.94,1
27090,11.42,-1.11,3.07,230.23,-52.02,110.4,1
27115,12.26,-1.23,2.3,228.03,-19.76,78.94,1
27140,13.18,-1.48,2.37,228.46,9.02,44.73,1
27164,13.95,-0.65,1.22,229.62,-18.78,9.67,1
27189,14.5,-0.22,-0.08,224.44,-43.42,-31.06,1
27215,13.95,-0.87,-1.88,210.6,-43.11,-78.99,1
27239,13.51,-1.28,-2.69,187.61,-15.86,-123.93,1
27265,13.21,-0.44,-3.79,169.74,-14.94,-159.72,1
27289,11.81,0.28,-4.59,145.96,-44.15,-188.93,1
27314,9.98,0.63,-4.97,119.62,-43.97,-212.71,1
27339,7.97,1.48,-5.89,94.13,-39.58,-227.58,1
27364,6.35,2.53,-6.64,65.35,-42.56,-240.57,1
27389,4.19,2.8,-6.95,42.61,-9.82,-257.22,1
27414,3.63,3.27,-7.42,30.66,62.5,-271.12,1
27439,3.44,4.38,-7.3,19.44,86.46,-271.61,1
27463,2.56,4.96,-7.12,9.93,51.34,-261.36,1
27488,0.95,5.31,-7.53,0.54,10.3,-254.41,1
27514,-0.45,5.32,-8.18,-11.6,14.08,-252.77,1
27538,-1.15,5.69,-8.59,-20.32,34.63,-250.69,1
27563,-3.63,6.47,-8.84,-32.45,13.04,-248.13,1
27587,-3.66,4.61,-9.68,-56.78,-12.99,-234.54,1
27613,-4.77,3.8,-10.02,-103.43,-57.5,-216.06,1
27637,-6.2,3.42,-7.79,-159.58,-118.72,-191.55,1
27663,-8.63,3.4,-4.58,-198.12,-184.27,-143.44,1
27688,-11.25,4.55,-0.8,-198.97,-260.31,-59.6,1
27712,-13.77,5.06,2.96,-174.83,-320.67,39.97,1
27738,-13.19,6.18,3.67,-148.61,-324.27,121.13,1
27762,-11.15,4.84,4.06,-132.39,-248.36,170.58,1
27788,-6.8,5.69,5.27,-143.18,-176.22,197.17,1
27813,-4.66,5.43,7.16,-142.27,-196.4,219.85,1
27838,-2.28,5.01,8.79,-120.13,-224.33,246.13,1
27863,-0.39,3.76,9.61,-87.76,-245.06,269.85,1
27887,2.02,2.8,10.04,-63.3,-233.48,288.14,1
27913,4.99,1.72,10.66,-31.48,-211.22,299.79,1
27938,6.44,0.43,10.63,10.23,-224.88,302.84,1
27962,6.46,-1.95,8.97,62.97,-218.6,296.13,1
27988,8.66,-2.15,6.73,102,-124.21,274.91,1
28012,11.58,-2.84,5.63,124.07,-67.75,239.06,1
28038,12.52,-4.17,4.3,136.33,-94.27,189.36,1
28062,13.81,-3.5,3.15,143.22,-51.35,127.47,1
28087,14.8,-2.92,3.04,148.28,2.56,62.17,1
28113,15.41,-2.6,2.94,152.61,-27.2,4,1
28137,13.8,-3.07,2.54,155.23,-67.56,-46.37,1
28162,13.08,-2.77,1.96,164.13,-12.2,-97.04,1
28187,13.07,-0.93,1.46,184.5,28.96,-132.34,1
28212,12.32,0.21,0.92,203.22,-6.04,-164.6,1
28237,10.83,-0.36,-0.13,216.33,10.42,-198.99,1
28262,10.25,0.26,-0.47,225.53,71.28,-218.07,1
28287,9.68,1.64,-2.15,237.79,58.71,-221.61,1
28311,7.87,2.3,-4.2,232.85,13.53,-225.33,1
28337,8.22,3.51,-5.32,208.03,62.19,-232.83,1
28361,6.61,4.35,-6.28,181.69,61.28,-245.69,1
28386,5.85,4.61,-6.75,153.77,33.78,-259.72,1
28412,5.25,4.28,-6.99,133.64,63.29,-267.46,1
28436,3.34,4.58,-7.47,123.71,55.3,-269.23,1
28461,2,4.43,-7.63,109.99,42.92,-274.54,1
28486,1.23,4.21,-8.44,96.63,73.78,-263.99,1
28511,-0.4,4.08,-9.78,75.47,40.24,-247.4,1
28536,-2.41,3.76,-11.06,47.06,16.03,-229.84,1
28561,-3.98,4.3,-11.78,12.43,-0.74,-200.51,1
28586,-4.79,4.75,-11.92,-35.56,-67.99,-170.09,1
28610,-6.62,5.02,-10.87,-86.9,-128.17,-132.89,1
28636,-8.24,5.16,-9.01,-132.63,-137.38,-87.77,1
28660,-7.92,4.92,-7.51,-158.67,-125.49,-44.9,1
28685,-5.89,5.52,-6.73,-188.55,-153.78,-24.23,1
28711,-5.1,5.46,-4.66,-226.72,-201.47,-8.81,1
28735,-5.52,5.4,-1.57,-249.83,-267.81,22.35,1
28760,-6.22,4.17,1.5,-251.84,-297.38,61.44,1
28785,-4.6,4.69,4.78,-242.94,-307.62,101.62,1
28810,-4.13,4.6,7.99,-222.94,-349.27,143.69,1
28836,-3.48,4.71,8.35,-185.25,-390.24,179.79,1
28860,-1.97,4.4,8.94,-148.24,-358.17,200.58,1
28885,0.48,3.01,10.8,-119.58,-283.42,214.54,1
28910,2.99,1.52,11.6,-85.93,-263.6,229.54,1
28935,4.32,1.82,11.49,-36.84,-268.72,231.01,1
28960,5.59,1.93,10.26,9.38,-213.6,219.24,1
28985,7.71,0.87,10.71,54.99,-134.45,197.59,1
29010,9.15,0.53,10.13,108.83,-99.64,173.45,1
29035,9,0.48,8.52,152.18,-114.52,146.68,1
29060,8.56,-0.16,6.39,184.68,-109.33,126.07,1
29084,8.92,-1.31,5.36,201.27,-78.42,112.9,1
29110,9.34,-1.78,4.38,214.5,-92.56,106.25,1
29135,9.81,-2.21,2.54,229.5,-124.27,97.78,1
29159,10.16,-2.52,0.83,230.35,-135.31,78.63,1
29185,10.33,-2.35,-0.47,217.06,-121.47,49.67,1
29209,12.28,-2.23,-1.96,205.35,-29.15,9.73,1
29235,13.89,-2.69,-2.14,194.8,2.62,-30.03,1
29259,14.36,-2.07,-2.93,178.4,-38.85,-73.32,1
29284,15.15,-1.18,-2.98,163.64,-18.24,-122.16,1
29310,14.19,-1.79,-2.24,155.41,-15,-171,1
29334,12.35,-1.95,-2.49,148.58,-60.98,-214.05,1
29359,10.96,-0.9,-3.24,147.43,-26.1,-246.79,1
29384,9.1,-0.17,-3.93,154.38,-2.2,-265.94,1
29409,7.01,1.01,-4.8,148.03,-27.26,-267.04,1
29434,5.84,1.13,-6.41,127.79,-26.65,-259.23,1
29459,4.79,2.87,-8.02,105.17,-1.71,-258.8,1
29484,4.46,3.27,-8.36,93.58,38.29,-264.17,1
29508,3.11,3.56,-9.18,82.91,19.39,-257.83,1
29534,1.75,4.32,-9.58,57.24,-4.94,-250.45,1
29559,1.82,5.08,-8.97,31.76,18.65,-249.41,1
29583,-0.69,4.63,-9.04,16.21,1.58,-247.16,1
29608,-1.04,4.52,-8.49,4.26,3.47,-241.67,1
29633,-0.98,4.63,-8.02,-1.96,41.46,-233.8,1
29658,-1.18,4.45,-7.98,-7.82,4.57,-226.85,1
29682,-2.85,3.17,-8.71,-18.06,-35.43,-228.19,1
29707,-3.89,3,-9.54,-36.23,-6.83,-222.83,1
29733,-5.62,2.14,-10.11,-60.44,-9.64,-207.83,1
29757,-7.08,2.75,-10.17,-90.62,-74.7,-189.9,1
29782,-7.31,1.82,-9.78,-133.79,-114.82,-167.46,1
29807,-8.55,2.19,-7.89,-182.39,-150.25,-136.67,1
29832,-9.23,2.4,-5.4,-207.39,-156.71,-101.12,1
29858,-9.89,3.04,-2.86,-206.17,-170.25,-52.89,1
29882,-9.77,3.35,-0.51,-198.49,-232.68,6.99,1
29907,-9.56,4.93,0.73,-193.3,-344.21,73.45,1
29932,-10.09,3.99,2.64,-178.85,-406.34,139.48,1
29957,-9.2,3.88,4.11,-170.86,-359.03,190.95,1
29981,-7.65,3.83,6.35,-162.69,-321.83,235.89,1
30007,-4.47,3.02,8.7,-143.67,-318.05,276.43,1
30032,-1.27,2.68,10.14,-112.33,-331.1,305.4,1
30057,2.1,1.3,11.38,-76.17,-307.26,321.43,1
30082,3.71,0.81,11.46,-28.49,-317.75,325.21,1
30106,7.41,-1.45,11.74,30.84,-264.27,322.53,1
30132,7.86,-1.47,10.75,95.54,-267.01,304.24,1
30157,9.18,-3.14,9.09,158.34,-215.98,264.85,1
30182,10.66,-3.64,7.94,216.45,-77.2,206.68,1
30207,11.6,-3.9,7.28,266.63,1.46,158.33,1
30231,11.87,-4.37,6.31,299.68,-47.2,129.12,1
30257,11.11,-5.41,4.17,306.94,-93.66,97.11,1
30281,11.63,-4.65,2.18,293.28,-56.71,60.58,1
30306,12.21,-4.53,1.14,275.9,-34.03,27.66,1
30332,12.97,-4.42,0.75,267.73,-42.2,-5.39,1
30356,13.15,-4.06,-0.53,250.72,-59.09,-36.98,1
30381,14.08,-3.33,-2.33,222.3,-66.83,-74.84,1
30406,13.8,-2.48,-3.49,188.16,-79.45,-121.55,1
30431,12.9,-1.95,-3.93,157.79,-63.17,-164.66,1
30457,11.14,-1.25,-3.35,135.05,-65.55,-192.46,1
30481,9.6,0.29,-3.64,117.61,-88.36,-208.26,1
30506,7.48,0.78,-4.56,110.78,-95.8,-216.85,1
30531,6.37,1.08,-5.11,110.72,-59.94,-219.54,1
30556,4.82,2.44,-6.22,104.44,-45.74,-217.58,1
30580,5.05,3.06,-7.15,93.34,-52.93,-211.73,1
30606,4.14,3.98,-7.81,70.78,-57.2,-209.6,1
30631,3.1,4.3,-8.1,49.87,-36.28,-222.65,1
30655,2.7,4.24,-9.18,39.07,0.73,-227.4,1
30680,1.74,4.38,-9.75,22.24,-15.13,-229.41,1
30705,-0.14,5.08,-9.57,-9.1,-29.33,-236.3,1
30730,-0.94,4.11,-9.26,-35.62,-16.28,-227.46,1
30755,-2.39,3.99,-9.44,-58.43,-31.1,-208.19,1
30780,-3.67,3.9,-9.73,-78.73,-36.22,-184.17,1
30805,-3.87,4.23,-9.49,-100.74,-28.05,-160.21,1
30829,-3.67,4.75,-8.85,-133.49,-80.49,-132.95,1
30855,-4.02,4.69,-7.83,-168.55,-142.87,-112.59,1
30879,-6.52,4.9,-6.51,-200.8,-184.94,-98.01,1
30904,-7.84,5.18,-4.89,-217.14,-153.54,-72.83,1
30930,-6.75,5.36,-2.99,-221.35,-112.5,-51,1
30954,-7.03,6.33,0.33,-229.22,-180.8,-29.05,1
30979,-8.66,6.27,2.59,-219.71,-289.64,27.53,1
31004,-9.3,6.38,4.85,-192.82,-296.65,95.89,1
31029,-8.16,6.17,7.3,-165.13,-259.09,152.66,1
31055,-5.86,5.58,8.67,-140.74,-251.77,199.06,1
31079,-3.49,5.76,9.03,-111.11,-259.94,233.81,1
31104,-1.7,4.78,9.53,-74.4,-263.42,259.18,1
31129,0.33,4.99,9.1,-38.79,-253.17,279.54,1
31154,2.12,2.72,8.95,-8.06,-248.54,297.23,1
31178,4.19,1.61,8.63,20.48,-236.4,311.13,1
31204,5.85,-1.2,7.16,53.16,-192.93,310.89,1
31229,10.4,-1.03,6.97,80.29,-125.92,290.21,1
31253,12.11,-2.06,6.74,116.88,-143.11,256.01,1
31279,11.6,-2.67,3.29,145.66,-182.56,194.85,1
31303,12.02,-2.99,1.49,157.97,-105.31,126.8,1
31329,12.18,-3.46,2.57,166.39,-27.02,81.25,1
31354,10.28,-3.71,3.37,182.18,-117.38,62.41,1
31378,10.41,-4.15,2.19,203.28,-105.43,37.6,1
31404,11.48,-4.43,1.09,216.45,-19.15,5.95,1
31428,11.65,-4.37,0.11,213.22,-57.87,-26.43,1
31453,12.4,-3.55,-1.23,205.9,-75.13,-64.72,1
31479,12.24,-2.54,-2.21,199.92,-54.76,-102.04,1
31503,11.37,-2.93,-2.24,191.81,-63.36,-143.13,1
31529,10.79,-3.78,-2.01,186.45,-38.72,-180.63,1
31553,10.67,-2.8,-3.5,195.35,-22.32,-197.83,1
31578,9.67,-1.45,-4.29,193.4,-72.38,-212.34,1
31603,8.99,-1.11,-4.36,180.41,-49.76,-231.06,1
31628,7.65,-0.22,-5.62,180.66,-3.24,-245.33,1
31653,6.94,0.45,-6.72,182.97,-14.52,-248.99,1
31678,6.13,0.42,-7.7,172.06,-7.93,-247.28,1
31703,6.8,1.62,-8.83,156.82,63.1,-243.07,1
31727,4.77,2.7,-9.58,132.12,4.69,-228.68,1
31753,3.74,2.78,-9.69,97.24,-29.58,-221,1
31778,3.03,2.93,-10.05,74.8,22.43,-211,1
31802,1.16,3.19,-10.38,56.57,6.46,-200.09,1
31828,1.06,3.32,-10.28,30.84,-17.2,-176.91,1
31852,1,3.43,-10.85,6.76,-11.16,-152.89,1
31877,0.82,3.95,-11.83,-24.83,-59.21,-135.21,1
31902,0.35,3.58,-11.82,-63,-75.55,-124.48,1
31927,0.47,3.78,-11.2,-92.88,-59.52,-116.49,1
31952,-0.22,4.35,-10.68,-126.05,-101.22,-117.52,1
31977,0.35,4.91,-9.37,-159.4,-86.53,-126.67,1
32002,0.61,4.81,-7.8,-185.38,-76.16,-147.65,1
32026,0.27,4.5,-6.14,-212.33,-108.42,-178.2,1
32052,-1.78,3.22,-4.81,-230.13,-103.54,-206.18,1
32077,-2.88,2.7,-3.83,-233.36,-76.95,-231.91,1
32102,-4.41,2.61,-2.62,-230.07,-51.04,-244.9,1
32127,-6.12,2.62,-0.96,-222.02,-50,-244.17,1
32151,-7.67,3.59,1.53,-207.08,-96.71,-223.26,1
32177,-9.98,4.54,4.33,-173.85,-204.7,-160.57,1
32201,-12.63,3.81,6.17,-135.93,-325.92,-75.76,1
32226,-15.68,3.1,6.13,-111.11,-323.6,-10.39,1
32252,-13.39,3.18,7.13,-95.56,-158.6,34.91,1
32276,-12.66,2.74,8.96,-75.07,-49.46,81.01,1
32301,-10.7,3.7,10.49,-56.78,-110.06,130.34,1
32326,-9.54,3.16,11.72,-15.01,-200.19,185.03,1
32351,-8.09,1.89,11.99,30.17,-194.15,236.62,1
32377,-5.21,1.73,12.83,65.78,-167.32,277.47,1
32401,-0.51,1.07,13.38,114.01,-170.12,305.09,1
32426,0.71,1.44,11.99,167.12,-242.62,314.24,1
32451,-0.19,0.58,9.48,208.03,-269.09,305.52,1
32476,3.76,-0.67,7.02,241.51,-151.53,280.15,1
32501,6.3,-0.93,6.62,249.99,43.04,251.37,1
32526,8.23,0.47,5.61,246.14,51.15,228.08,1
32551,8.5,0.84,4.74,239.56,-54.82,200.22,1
32576,10.61,0.24,4.19,245.66,18.23,157.66,1
32601,12.31,0.9,4.01,248.03,95.79,125.09,1
32625,12.69,0.6,3.05,245.78,1.46,92.41,1
32651,13.02,-0.02,2.39,242.97,-19.58,52.78,1
32676,13.16,0.67,2.12,241.2,23.17,15.95,1
32700,12.72,0.7,1.1,247.49,-27.02,-13.38,1
32726,12.25,0.59,-2.13,249.38,-62.32,-39.29,1
32750,12.17,1.02,-4.96,235.84,-25,-65.82,1
32775,12.65,1.36,-5.39,213.22,-16.59,-92.1,1
32800,10.67,0.47,-6.22,194.07,-69.88,-119.54,1
32825,8.63,0.96,-8.77,174.44,-50.8,-143.44,1
32850,9.94,1.08,-9.62,146.75,7.43,-153.38,1
32875,8.28,1.23,-9.86,110.54,-32.44,-154.41,1
32900,7.79,1.1,-10.15,60.29,-75.8,-146.79,1
32924,6.74,1.08,-10.61,8.22,-107.63,-143.38,1
32950,5.63,1.66,-11.09,-35.13,-112.5,-149.72,1
