t_ms,ax,ay,az,gx,gy,gz,label
5,-5.35,8.54,0.81,0.29,0.67,-2.1,1
29,-5.52,8.44,0.71,-0.32,0.79,-1.49,1
53,-5.45,8.48,0.69,-1.48,2.98,-0.76,1
78,-5.41,8.47,0.69,-1.78,2.19,-0.33,1
102,-5.41,8.5,0.87,-1.35,0.85,-0.51,1
127,-5.33,8.45,0.89,-1.29,-1.22,-1.18,1
151,-5.29,8.47,0.89,-0.93,-0.61,-1.49,1
176,-5.26,8.49,0.94,-0.62,0.3,-1.25,1
200,-5.42,8.49,0.98,0.17,0.73,-1.49,1
225,-5.34,8.5,0.98,0.78,-0.31,-1.73,1
250,-5.36,8.45,0.82,0.48,0.24,-2.16,1
274,-5.36,8.44,0.86,-0.26,-0.61,-2.95,1
299,-5.44,8.47,1.01,0.66,-1.71,-3.68,1
323,-5.52,8.53,0.88,1.94,0.3,-3.56,1
348,-5.71,8.5,0.69,1.02,-0.07,-2.47,1
372,-5.63,8.47,0.65,-0.01,0.42,-1.79,1
397,-5.62,8.56,0.67,-0.01,0.91,-1,1
422,-5.54,8.42,0.66,-0.2,1.52,0.34,1
446,-5.52,8.4,0.74,-1.41,2.56,0.64,1
471,-5.38,8.48,0.76,-1.35,1.15,-0.15,1
495,-5.39,8.4,0.81,-1.35,0.61,-1.25,1
520,-5.49,8.38,0.76,-2.33,0.79,-1.79,1
544,-5.41,8.43,0.79,-2.82,2.13,-2.28,1
569,-5.3,8.42,0.94,-3,2.43,-2.83,1
594,-5.39,8.34,1.02,-3.06,2.98,-4.66,1
618,-5.4,8.27,0.9,-2.7,1.82,-7.16,1
643,-5.52,8.3,0.92,-2.94,-2.69,-8.01,1
667,-5.59,8.39,0.94,-2.88,-4.94,-6.43,1
692,-5.62,8.36,1.09,-1.72,-1.65,-5.39,1
717,-5.6,8.39,1.03,-0.01,1.4,-5.7,1
741,-5.78,8.2,0.91,0.84,0.67,-5.88,1
766,-5.92,8.32,0.82,1.76,-1.22,-5.39,1
790,-5.85,8.44,0.73,2.37,-1.71,-5.09,1
815,-5.95,8.44,0.62,3.1,0.61,-4.54,1
839,-6.1,8.36,0.58,2.91,-0.13,-3.32,1
864,-6.22,8.46,0.4,2.55,1.95,-0.03,1
889,-6,8.46,0.29,1.27,4.69,3.75,1
913,-5.76,8.41,0.29,-1.48,4.63,5.4,1
938,-5.6,8.43,0.39,-5.62,2.86,4.61,1
962,-5.51,8.37,0.6,-8.18,-2.69,3.08,1
987,-5.54,8.4,1,-9.16,-5.43,1.86,1
1011,-5.55,8.26,1.09,-9.28,-2.81,1.68,1
1036,-5.53,8.09,1.16,-8.73,-1.83,0.89,1
1061,-5.48,8.05,1.31,-8,-2.57,-0.94,1
1085,-5.61,8.16,1.52,-5.56,-4.33,-1.98,1
1111,-5.64,8.3,1.61,-2.21,-0.98,-2.04,1
1135,-5.67,8.26,1.51,0.6,-1.53,-1.31,1
1160,-5.76,8.23,1.45,2.18,2.86,0.16,1
1184,-5.81,8.19,1.14,2.79,2.92,1.07,1
1209,-5.72,8.2,1.17,2,3.35,1.32,1
1234,-5.66,8.27,1.17,1.82,1.82,1.01,1
1258,-5.74,8.38,1.16,2.24,2.56,0.4,1
1283,-5.74,8.27,1.04,2.67,2.98,-0.03,1
1307,-5.8,8.34,0.97,2.85,4.08,-0.33,1
1332,-5.93,8.3,0.84,2.12,-0.25,-0.09,1
1357,-5.91,8.38,0.82,1.33,0.54,1.01,1
1381,-5.83,8.31,0.72,0.84,1.52,1.13,1
1406,-5.82,8.27,0.69,-0.38,1.64,1.44,1
1430,-5.82,8.26,0.81,-2.02,1.7,1.74,1
1455,-5.72,8.34,0.95,-2.15,-0.31,1.8,1
1479,-5.7,8.45,0.86,-0.93,1.03,2.35,1
1504,-5.65,8.32,0.88,-0.81,1.82,2.6,1
1529,-5.65,8.31,0.88,-0.74,2.07,2.47,1
1553,-5.52,8.34,0.85,-0.56,0.97,1.93,1
1578,-5.62,8.36,0.87,-0.56,0.3,1.56,1
1602,-5.67,8.29,0.85,-0.93,1.7,1.74,1
1627,-5.6,8.36,0.78,-1.35,1.34,1.56,1
1651,-5.58,8.4,1.07,-1.72,-1.71,1.56,1
1676,-5.68,8.45,0.9,-1.6,0.61,2.17,1
1701,-5.59,8.36,0.93,-1.96,0.12,2.41,1
1725,-5.47,8.31,1.05,-2.7,-0.13,2.35,1
1750,-5.53,8.44,0.91,-2.39,0.18,2.35,1
1774,-5.55,8.38,0.73,-3.73,-0.19,2.41,1
1800,-5.42,8.16,0.72,-6.78,-1.04,2.9,1
1824,-5.49,8.21,0.63,-11.17,2.43,3.57,1
1849,-5.49,8.32,1.02,-14.1,0.54,3.51,1
1874,-5.57,8.33,1.3,-14.28,6.15,2.9,1
1898,-5.61,8.22,1.38,-13.91,4.81,3.51,1
1923,-5.79,8.12,1.21,-15.38,8.53,5.03,1
1947,-5.94,8.34,1.41,-16.41,13.96,9.12,1
1972,-5.92,8.54,1.64,-14.59,18.84,12.47,1
1997,-5.81,8.56,1.71,-11.05,13.35,13.45,1
2022,-5.69,8.66,1.42,-7.57,6.95,13.51,1
2047,-5.54,8.65,1.17,-6.72,2.25,14,1
2071,-5.4,8.56,1.13,-7.33,6.15,13.94,1
2096,-5.22,8.59,1.22,-8.18,6.28,14.24,1
2120,-5.01,8.65,1.55,-6.96,2.19,14.12,1
2145,-4.75,8.57,1.58,-5.2,2.13,12.11,1
2170,-4.58,8.53,1.68,-3.55,2.62,8.51,1
2194,-4.58,8.43,1.59,-3,-1.89,5.03,1
2219,-4.51,8.43,1.69,-1.96,0.18,1.93,1
2243,-4.55,8.41,1.87,-0.62,-0.19,-0.76,1
2268,-4.64,8.41,1.76,2,0.85,-3.26,1
2292,-4.75,8.41,1.8,3.95,0,-5.76,1
2317,-4.96,8.46,1.82,4.68,-2.38,-6.92,1
2342,-5.13,8.46,1.91,7.06,0.48,-6.79,1
2366,-5.32,8.43,1.95,11.09,0.85,-6,1
2391,-5.79,8.47,1.93,16.02,15.48,-2.95,1
2416,-6.22,8.25,1.89,19.74,22.25,4.12,1
2441,-6.63,8.43,1.81,23.65,30.06,15.64,1
2466,-6.35,8.56,1.84,30.29,37.5,27.35,1
2490,-5.88,8.53,1.93,38.52,46.89,35.4,1
2515,-5.52,8.55,1.61,48.16,57.74,40.52,1
2540,-4.99,8.46,0.86,53.46,56.7,43.21,1
2565,-4.46,8.49,0.16,55.6,53.78,43.75,1
2589,-3.86,8.7,-0.09,56.15,54.93,43.02,1
2614,-3.43,8.79,0,59.38,83.04,43.21,1
2639,-2.73,8.75,-0.12,67,134.26,43.02,1
2663,-1.68,8.4,-0.47,74.8,111.88,38.75,1
2689,-1.08,8.45,-0.88,82.43,73.71,26.38,1
2713,-0.65,8.48,-1.2,94.01,62.74,9.24,1
2738,0.01,8.19,-2.45,102.36,64.57,-10.21,1
2762,0.48,7.83,-4.13,100.84,34.39,-32.95,1
2787,0.73,7.48,-5.16,90.72,-15.61,-58.01,1
2813,0.79,7.76,-6.43,77.06,-52.5,-91,1
2837,0.17,7.33,-8.32,50.54,-70.61,-121.98,1
2862,-1.04,7.28,-9.09,17.73,-76.41,-147.52,1
2886,-2.85,6.33,-9.16,-17.45,-99.15,-166.67,1
2912,-5.73,6.1,-8.22,-50.93,-131.83,-169.78,1
2937,-7.46,5.83,-6.77,-78.79,-119.39,-158.68,1
2961,-8.76,5.59,-6.45,-103.43,-105.55,-141.79,1
2987,-9.31,4.5,-5.49,-130.07,-115.92,-124.78,1
3011,-9.72,3.73,-3.59,-150.56,-117.5,-111,1
3036,-9.7,2.97,-2.21,-167.94,-119.39,-98.07,1
3061,-9.64,2.44,-1.33,-183.73,-130.25,-85.94,1
3086,-10.28,1.21,-0.74,-205.38,-108.11,-71.67,1
3111,-11.4,-0.22,-0.14,-228.67,-57.87,-48.99,1
3136,-11.66,-0.86,1.85,-245.07,-49.64,-19.78,1
3161,-11.77,-0.76,4.86,-246.72,-66.77,9.67,1
3185,-12.4,-0.45,6.63,-231.78,-50.19,38.57,1
3210,-14.84,-0.45,9.24,-208.85,-45.67,68.45,1
3236,-14.28,-1.04,10.54,-179.52,-29.76,100.89,1
3260,-14.16,-0.04,12.38,-132.69,-35.06,140.64,1
3286,-13.15,0.68,13.45,-74.16,-40,179.73,1
3310,-11.82,0.85,12.95,-13.12,-28.48,208.39,1
3335,-9.93,0.74,11.53,36.63,-25.74,228.94,1
3360,-8.07,1.05,9.73,74.38,-25.37,240.64,1
3385,-5.98,1.4,8.43,99.32,-16.89,246.68,1
3410,-4.17,2.29,8.14,119.99,-16.1,243.26,1
3434,-3.16,3.09,7.95,140.17,28.96,236.31,1
3460,-2.08,3.64,7.65,160.84,67.37,230.22,1
3484,-0.61,3.57,7.17,179.56,53.29,221.25,1
3509,0.69,3.73,6.43,196.02,19.45,205.09,1
3534,1.94,3.8,5.69,221.69,12.62,184.36,1
3559,3.44,3.68,4.22,246.69,0.36,158.69,1
3584,4.63,3.52,3.39,268.03,1.89,127.05,1
3608,7.19,3.04,0.75,284.31,-33.85,82.35,1
3633,8.42,3.21,-2.62,283.95,-104.03,21.01,1
3658,7.99,3.29,-5.43,259.25,-163.6,-44.9,1
3683,6.35,4.31,-8.06,220.66,-227.26,-106.24,1
3708,3.49,5.23,-10.66,171.27,-261.53,-157.95,1
3733,0.41,6.16,-11.83,117.43,-247.93,-191.79,1
3758,-2.23,5.94,-13.04,54.62,-247.75,-206.43,1
3783,-4.06,4.69,-12.76,-14.1,-278.29,-207.65,1
3808,-6.76,4.15,-10.4,-70.99,-293.9,-204.23,1
3833,-9.22,3.88,-8.69,-114.71,-207.44,-190.63,1
3858,-10.01,2.88,-7.72,-151.84,-131.95,-176.18,1
3883,-9.98,0.7,-6.37,-186.6,-165.73,-161.3,1
3907,-11.23,0.56,-3.82,-216.78,-214.15,-138.32,1
3933,-11.71,0.55,-1.38,-234.1,-171.34,-110.45,1
3957,-12.21,-0.09,-0.21,-242.75,-89.45,-83.87,1
3983,-12.44,-1.77,0.08,-251.53,-64.76,-56,1
4008,-13.19,-2.1,1.65,-263.97,-81.34,-18.56,1
4032,-13.23,-2.35,3.29,-266.6,-67.44,20.28,1
4057,-13.49,-2.77,5.26,-263.55,-58.66,53.57,1
4082,-13.22,-3.45,6.3,-252.51,-67.32,79,1
4107,-13.59,-3.12,9,-226.96,-72.69,109.79,1
4132,-13.33,-2.41,11.34,-192.82,-64.58,143.27,1
4157,-12.6,-1.88,12.25,-148,-82.87,173.57,1
4182,-11.78,-1.51,12.17,-94.34,-90.86,200.22,1
4207,-10.34,-0.98,11.79,-43.06,-93.17,223.02,1
4232,-8.68,-0.93,10.44,1.88,-79.39,236.74,1
4256,-7.03,-0.68,9.65,34.62,-62.5,241.13,1
4281,-5.04,-0.03,8.95,57.55,-71.53,239.48,1
4307,-3.74,0.83,9.04,78.04,-73.91,228.81,1
4331,-2.25,2.04,10.59,101.33,-49.27,212.35,1
4356,-1.61,3.35,11.5,133.34,8.84,197.9,1
4380,-1.01,4.03,11.38,178.77,45.18,186.19,1
4406,0.05,3.32,9.42,214.25,30.61,174.24,1
4431,1.04,2.69,7.55,239.07,8.04,161.68,1
4455,2.28,2.6,6.33,259.56,-3.18,145.7,1
4481,3.21,2.36,5.04,282,20.12,129.36,1
4505,4.8,2.26,3.54,298.83,46.34,111.74,1
4530,6.11,2.2,2.21,308.64,15.61,83.75,1
4554,7.26,2.4,0.2,320.96,-40.49,39.3,1
4580,7.58,3.41,-3.44,313.09,-73.48,-16.86,1
4605,7.43,2.83,-6.95,267.91,-125.31,-75.88,1
4629,6.03,4.41,-10.41,216.27,-194.7,-140.09,1
4655,3.6,4.67,-11.8,155.72,-265.49,-192.95,1
4679,-0.83,4.82,-12.39,84.93,-328.11,-225.76,1
4704,-5.09,5.37,-12.18,17.43,-322.68,-232.1,1
4730,-7.43,4.31,-10.47,-44.77,-307.38,-216.67,1
4754,-9.69,4.04,-9.78,-95.38,-269.27,-196.91,1
4779,-11.21,2.28,-9.55,-150.25,-202.56,-173.26,1
4804,-12.74,1.83,-6.86,-198.97,-211.89,-144.11,1
4829,-11.82,0.94,-5.35,-237.75,-213.54,-120.27,1
4855,-12.45,-0.85,-3.22,-271.29,-186.28,-92.95,1
4879,-13.41,-1.43,-1.08,-293.36,-107.99,-55.15,1
4904,-13.21,-2.56,0.87,-308.42,-73.42,-14.72,1
4929,-12.73,-3.01,2.94,-311.17,-89.58,25.46,1
4954,-12.86,-3.92,4.72,-305.86,-83.91,64.85,1
4978,-12.31,-4.09,7.15,-293.79,-72.69,98.88,1
5004,-11.96,-4.07,10.17,-268.36,-92.32,126.07,1
5029,-11.34,-3.34,12.96,-226.78,-85.55,148.57,1
5053,-10.23,-2.43,14.57,-166.17,-98.17,165.4,1
5079,-10.19,-2.47,15.2,-107.15,-117.69,179.61,1
5103,-9.57,-1.74,14.58,-37.7,-100,188.45,1
5129,-8.42,-1.58,13.36,22.85,-91.34,198.14,1
5154,-6.77,-1.45,11.36,66.02,-79.7,206.31,1
5178,-5.46,-0.98,9.42,90.17,-64.7,208.26,1
5203,-4.19,-0.2,8.65,106.15,-63.48,207.11,1
5228,-2.85,0.91,9.32,119.68,-51.47,203.02,1
5253,-2.03,1.87,9.33,138.58,-21.77,197.23,1
5277,-1.37,2.64,9.93,158.46,15.73,191.68,1
5303,-1.03,3.13,9.69,180.78,59.45,191.56,1
5328,-0.69,3.01,8.64,201.21,86.89,200.64,1
5352,0.91,2.81,7.83,211.75,102.13,213.81,1
5378,2.3,2.68,7.97,227.91,70.18,210.83,1
5402,4.33,2.86,6.51,253.16,79.81,195.52,1
5427,6.26,2.19,4.58,267.36,78.29,171.98,1
5451,7.43,2.11,2.1,266.39,62.56,143.14,1
5477,9.39,2.52,1.13,261.14,28.29,100.09,1
5502,11.22,3.96,-1.19,250.66,-60.86,35.34,1
5526,12.04,4.81,-4.43,213.77,-125.67,-48.32,1
5552,11.06,5.47,-6.33,171.08,-211.71,-128.56,1
5576,8.37,5.96,-7.55,126.14,-229.15,-195.51,1
5601,4.66,5.62,-7.93,79.38,-276.77,-243.74,1
5627,1.08,5.62,-7.7,37.61,-292.26,-275.33,1
5651,-2.73,4.42,-7.16,1.69,-277.07,-289.84,1
5676,-5.56,4.07,-6.32,-35.5,-268.17,-286.18,1
5701,-8.57,3.62,-5.05,-67.76,-264.09,-269.47,1
5726,-10.29,2.91,-4.46,-98.43,-246.22,-246.43,1
5751,-10.97,1.92,-2.94,-129.89,-298.42,-225.08,1
5776,-11.3,1.33,-1.59,-165.25,-336.65,-201.79,1
5801,-12.05,0.28,-0.23,-200.44,-281.95,-170.7,1
5825,-13.21,-1.53,0.62,-234.16,-193.36,-123.5,1
5851,-14.28,-2.36,2.25,-257.57,-99.09,-62.83,1
5875,-13.9,-3.4,4.61,-269.7,-98.42,1.62,1
5900,-13.43,-3.35,6.79,-265.13,-78.05,60.4,1
5926,-12.4,-4.01,9.18,-247.14,-82.38,102.11,1
5950,-11.71,-3.85,11.1,-217.51,-77.2,131.86,1
5975,-11.04,-3.43,12.59,-177.14,-74.33,154.36,1
6000,-10.4,-3.07,13.72,-128.73,-56.89,170.95,1
6025,-9.97,-3.07,14.14,-77.39,-61.28,183.63,1
6051,-9.75,-2.59,13.73,-25.8,-61.47,191.68,1
6075,-9.22,-2.14,12.58,19.32,-55.49,203.51,1
6100,-8.07,-1.9,11.24,53.28,-51.28,217.53,1
6125,-6.81,-1.46,10.05,78.46,-40,225.76,1
6150,-5.61,-0.9,8.94,93.71,-27.75,228.94,1
6174,-4.07,-0.02,8.53,102.24,-39.88,224.3,1
6199,-2.84,0.86,8.47,109.07,-16.28,216.01,1
6225,-1.72,1.94,8.25,116.21,2.07,203.57,1
6249,-0.87,3.23,8.54,127.61,11.95,186.13,1
6274,-0.64,3.66,8.54,142.67,13.04,170.64,1
6298,-0.49,4.17,7.98,153.71,21.28,160.95,1
6324,0.04,4.58,7.51,166.08,21.82,154.36,1
6349,0.94,4.68,7.66,182.42,19.93,149.42,1
6373,1.45,4.91,7.05,205.47,40.06,147.29,1
6399,2.34,4.39,5.92,224.68,83.96,147.66,1
6423,4.27,3.87,5.15,239.38,55,141.98,1
6448,5.56,3.67,4.51,257.79,5.48,119.73,1
6472,6.81,3.14,3.2,282.24,-18.36,85.03,1
6498,7.51,2.71,0.99,305.05,-29.94,43.14,1
6523,8.61,2.12,-3.48,299.31,-23.85,-2.77,1
6547,9.62,2.72,-6.99,258.28,-93.17,-53.81,1
6572,9.19,4.63,-9.94,201.45,-179.45,-114.84,1
6597,7.65,5.22,-12.05,136.21,-240.25,-179.11,1
6622,4.91,5.46,-12.99,68.1,-282.14,-240.02,1
6647,-0.16,4.13,-12.97,-4.46,-310.55,-273.26,1
6672,-5.16,4.13,-10.73,-68.67,-305.49,-269.96,1
6697,-7.86,3.75,-8.49,-110.38,-261.47,-246.79,1
6721,-9.42,2.99,-6.97,-143.24,-193.11,-221.55,1
6747,-9.86,1.52,-5.03,-173.49,-206.34,-201.67,1
6771,-11.13,1.49,-2.59,-195.07,-223.17,-180.45,1
6797,-11.27,0.99,-0.68,-207.82,-241.53,-157.52,1
6822,-10.59,0.03,1.21,-220.8,-257.68,-131.43,1
6846,-11.34,-0.5,1.87,-233.24,-208.54,-100.82,1
6872,-11.27,-1.49,3,-243.97,-172.62,-61.43,1
6896,-11.89,-2.13,4.26,-249.89,-126.28,-19.11,1
6922,-12.32,-3.78,5.21,-254.95,-75.92,25.89,1
6947,-12.3,-4.45,7.38,-255.86,-66.65,69.36,1
6971,-11.85,-4.55,9.62,-244.64,-69.7,106.19,1
6997,-11.76,-4.63,11.51,-217.75,-67.69,136.86,1
7021,-11.2,-4.06,14.06,-174.22,-85.25,164.36,1
7046,-9.91,-3.41,15.27,-117.33,-105.73,187.72,1
7071,-9.65,-2.96,15.54,-43.43,-85.86,200.52,1
7096,-8.9,-2.64,15.19,26.08,-57.32,207.11,1
7121,-7.85,-2.46,13.35,78.65,-58.3,216.01,1
7146,-6.86,-2.07,11.07,112.43,-43.17,222.84,1
7171,-5.4,-1.22,9.64,135.84,-34.52,224.54,1
7195,-3.79,-0.11,9.03,154.68,-48.6,218.14,1
7221,-2.69,0.61,8.1,168.58,-22.63,207.35,1
7246,-1.73,1.66,7.57,175.72,-3.42,195.95,1
7270,-1.08,2.67,7.67,180.6,24.02,183.94,1
7295,0.03,3.28,7.35,184.86,25.85,173.39,1
7320,1.22,4.15,6.95,197.67,12.19,155.95,1
7345,2.45,4.44,6.25,212.61,28.11,136.8,1
7369,3.61,4.41,5.25,227.91,18.41,113.69,1
7395,4.87,4.4,4.2,236.75,7.13,84.42,1
7420,5.94,4.8,2.68,246.33,-57.93,45.22,1
7444,6.23,4.46,0.73,251.14,-55.8,-1.31,1
7469,5.94,4.67,-0.9,241.08,-98.54,-51.92,1
7493,5.2,4.56,-1.74,230.53,-174.88,-103.2,1
7519,3.7,5.07,-3.35,216.69,-213.23,-154.29,1
7544,1.92,5.52,-5.68,186.21,-244.58,-204.9,1
7568,-0.92,4.5,-7.3,139.74,-256.65,-250.76,1
7594,-3.67,3.33,-7.64,91.21,-295.18,-279.66,1
7618,-7.92,3.67,-7.9,36.02,-330,-282.4,1
7643,-11.38,3.05,-7.37,-15.62,-302.75,-256.3,1
7668,-14.06,3.38,-6.45,-63.43,-236.71,-211.85,1
7693,-15.82,3.31,-5.82,-110.26,-193.11,-154.84,1
7719,-17.06,2.16,-4.73,-152.39,-161.28,-96.24,1
7743,-17.06,1.12,-3.73,-194.71,-102.87,-37.89,1
7768,-16.3,0.2,-2.65,-231.35,-64.52,10.58,1
7793,-15.29,-0.68,-1.45,-259.28,-14.27,48.69,1
7818,-14.13,-1.84,-0.9,-283.42,-9.27,79.79,1
7843,-13.23,-2.73,0.85,-300.5,-21.89,109.85,1
7867,-11.97,-3.14,3.06,-303.67,-40.67,136.07,1
7893,-11.77,-3.82,4.21,-297.63,-33.36,153.87,1
7917,-10.04,-3.72,7.17,-284.83,-67.93,164.61,1
7943,-10.76,-3.62,10.22,-256.53,-97.81,178.57,1
7967,-8.94,-2.25,13.08,-211.11,-87.99,191.31,1
7992,-8.63,-2.24,14.26,-160.07,-95.31,199.85,1
8018,-8.04,-1.88,14.73,-102.94,-70.55,206.44,1
8042,-7.16,-1.39,14.84,-41.23,-70.49,206.92,1
8067,-6.28,-1.23,14.09,11.33,-57.75,207.59,1
8092,-4.99,-0.98,12.99,53.28,-48.24,210.09,1
8117,-3.65,-0.41,11.58,87,-38.72,204.12,1
8142,-2.21,0.47,10.91,116.51,-47.5,192.9,1
8167,-1.53,1.12,9.94,139.01,-32.75,177.05,1
8192,-0.89,1.92,9.87,153.64,-18.17,165.09,1
8216,-0.38,2.47,9.1,167.06,-11.35,156.31,1
8241,0.16,3.09,9.27,185.41,-7.38,149.12,1
8266,1.22,3.52,9.36,205.47,-17.44,142.47,1
8291,1.76,3.5,8.75,236.51,-2.14,135.22,1
8316,2.96,2.95,7.37,272.18,57.98,135.77,1
8341,5.47,2.03,5.99,297.36,62.25,130.77,1
8366,7.39,1.65,4.11,313.28,35.67,105.22,1
8390,8.46,1,2.16,323.52,-23.36,63.51,1
8415,9.43,0.45,-0.26,327.79,-31.59,11.38,1
8441,9.88,1.02,-4.38,315.84,-65.37,-50.15,1
8465,10.05,2.28,-8.24,267.24,-164.27,-116.49,1
8490,7.17,3.21,-11.25,192.42,-302.75,-186.79,1
8515,2.54,3.93,-11.77,116.21,-405.79,-245.51,1
8540,-2.15,4.92,-12.38,39.13,-354.7,-267.65,1
8564,-6.63,3.9,-12.18,-32.51,-290.61,-264.9,1
8590,-9.01,3.54,-11.08,-92.27,-240.92,-250.15,1
8615,-11.33,1.54,-8.96,-138.18,-257.32,-228.68,1
8640,-13.61,2.07,-5.81,-176.23,-228.97,-195.69,1
8665,-14.23,1.67,-3.28,-202.88,-251.28,-156.24,1
8689,-13.7,1.07,-1.71,-226.17,-295.12,-116.79,1
8715,-14.77,-0.85,-1.33,-250.56,-211.65,-64.6,1
8740,-15.85,-0.98,0.78,-265.25,-83.36,3.39,1
8764,-13.97,-0.67,3.29,-263.79,-57.99,59.85,1
8790,-12.26,-1.38,4.16,-256.78,-84.21,102.9,1
8814,-11.94,-2.01,5.36,-250.74,-64.27,133.14,1
8839,-10.77,-3.13,6.89,-239.71,-46.59,154.36,1
8864,-10.02,-2.28,9.7,-219.4,-77.99,174.61,1
8889,-11.15,-2.51,12.19,-184.89,-50.37,193.94,1
8915,-9.71,-2.26,14.36,-137.39,-47.69,212.04,1
8939,-8.54,-2.28,14.52,-87.08,-72.26,226.56,1
8964,-7.89,-1.71,14.05,-35.44,-55.8,234.73,1
8989,-6.42,-1.61,13.44,6.09,-66.47,239.42,1
9014,-4.74,-0.7,12.58,50.05,-59.09,234,1
9039,-2.88,-0.23,11.56,83.4,-60.31,223.94,1
9063,-1.47,0.91,10.55,109.32,-50.19,207.53,1
9089,-0.73,1.45,10.38,133.77,-39.82,188.02,1
9113,0.21,2,10.39,154.99,-11.41,171.98,1
9138,0.71,2.51,10.57,180.9,-0.86,159.24,1
9163,0.77,2.74,10.37,215.29,21.76,150.83,1
9188,1.4,2.55,9.16,243.89,77.74,157.78,1
9213,2.63,2,7.95,268.28,114.2,169.12,1
9238,4.33,1.56,6.43,287.97,122.25,173.33,1
9263,5.92,0.72,4.61,300.05,91.4,165.03,1
9287,7.87,0.92,3.1,308.52,68.35,140.4,1
9312,10.04,0.12,0.31,305.96,9.51,95.46,1
9338,12.3,1.32,-2.28,288.7,-49.82,30.1,1
9362,12.94,2.84,-5.11,259.25,-130.06,-53.81,1
9387,11.31,3.99,-7.83,212.85,-242.32,-140.94,1
9412,6.86,3.86,-9.79,154.56,-288.6,-208.99,1
9437,2.98,4.44,-10.31,101.02,-294.88,-252.89,1
9461,-1.47,3.24,-11.18,48.16,-271.83,-272.04,1
9487,-5.15,3.58,-10.87,4.01,-213.36,-271.79,1
9512,-8.44,3.49,-9.64,-33.24,-213.36,-258.99,1
9536,-10.6,3.24,-8.45,-69.83,-233.42,-234.23,1
9562,-12.11,2.82,-6.71,-99.22,-251.59,-210.57,1
9586,-13.24,2.65,-5.08,-123.43,-244.88,-186.73,1
9612,-13.88,1.62,-3.37,-148.06,-273.72,-158.32,1
9637,-13.46,1.62,-1.39,-173.06,-307.75,-121.18,1
9661,-14.67,0.67,-0.66,-193.55,-252.87,-78.38,1
9687,-15.17,-0.17,-0.55,-215.01,-73.85,-21.98,1
9711,-13.9,-0.65,1.05,-235.07,-86.89,35.1,1
9736,-13.49,-1.55,2.45,-241.78,-100.43,85.4,1
9762,-13.06,-2.34,4.06,-243.36,-33.48,125.34,1
9786,-12.53,-3.8,4.9,-245.92,-27.63,154.18,1
9811,-12.12,-4.63,5.97,-246.29,-78.17,183.14,1
9836,-11.96,-3.55,8.9,-236.96,-72.14,216.5,1
9861,-11.77,-4.23,11.42,-212.02,-39.58,242.59,1
9886,-8.42,-3.67,14.13,-161.41,-83.91,266.56,1
9911,-7.57,-2.39,15.55,-92.76,-111.41,282.9,1
9936,-5.72,-1.75,15.08,-17.45,-92.81,278.14,1
9961,-3.58,-1.32,14.05,40.41,-80.67,262.78,1
9986,-1.75,-0.71,12.59,84.68,-69.27,241.98,1
10010,-1.29,-0.22,11.18,120.17,-46.89,220.89,1
10036,-1.35,-0.13,10.2,142.3,3.53,206.5,1
10061,-1.1,0.72,10.28,157.85,34.87,204.85,1
10085,0.05,1.73,10.66,178.77,38.17,201.37,1
10111,0.39,2.45,10.89,212.3,28.59,190.46,1
10135,1.84,1.93,9.89,247.55,45.3,185.52,1
10160,2.71,1.47,8.24,274.86,50.18,181.37,1
10185,4.58,0.65,6.48,298.34,45.79,173.02,1
10210,6.36,0.09,4.86,312.97,28.53,150.64,1
10235,8.46,-0.18,3.13,322,-42.2,111.92,1
10260,9.93,-1.23,0.11,325.66,-84.21,58.69,1
10285,11.67,0.37,-3.44,308.83,-91.59,-14.84,1
10309,12.89,2.47,-6.66,256.63,-237.38,-96.61,1
10335,10.76,2.53,-10.16,188.03,-365.79,-188.5,1
10360,5.26,4,-11.25,118.4,-408.9,-264.72,1
10385,-0.55,3.07,-12.19,48.46,-401.16,-305.08,1
10410,-5.89,2.78,-11.04,-9.4,-326.46,-303.93,1
10434,-9.97,3.17,-9.47,-50.8,-248.72,-278.74,1
10460,-11.99,2.29,-7.49,-82.51,-240.67,-246.97,1
10484,-13.88,2.51,-5.51,-109.95,-260.06,-217.28,1
10510,-14.54,1.78,-4.52,-139.65,-254.09,-188.19,1
10535,-14.65,1.01,-2.23,-166.84,-282.56,-149.6,1
10559,-14.4,0.76,-0.24,-185.74,-279.27,-104.17,1
10585,-13.9,0.8,0.53,-198.18,-232.56,-55.76,1
10609,-13.67,-0.56,0.47,-217.14,-159.45,-2.53,1
10635,-13.05,-1.61,1.52,-235.5,-94.82,50.28,1
10660,-12,-2.35,3.41,-246.53,-62.38,94.24,1
10684,-13.03,-3.24,4.5,-251.53,-12.99,125.22,1
10710,-13.1,-4.62,6.46,-255.31,-30.43,162.29,1
10734,-11.79,-4.57,9.17,-244.46,-81.16,200.34,1
10760,-10.99,-4.9,10.88,-214.58,-90.61,227.9,1
10784,-9.28,-4.13,12.51,-169.83,-93.91,249.36,1
10809,-8.39,-3.71,14.1,-116.9,-100.19,259.48,1
10835,-6.41,-2.73,15.45,-57.63,-119.7,259.79,1
10859,-4.72,-1.53,14.82,6.27,-94.03,250.58,1
10885,-3.02,-1.08,13.74,63.95,-74.58,233.14,1
10909,-1.75,-0.46,11.82,102.79,-65.37,210.52,1
10934,-1.11,0.52,10.15,128.1,-62.69,187.17,1
10960,-0.61,1.22,9.25,143.77,-38.48,164.91,1
10984,-0.03,2.01,8.77,155.05,-36.22,153.02,1
11009,0.78,2.77,8.1,164.8,-40.13,143.39,1
11034,1.35,3.63,7.56,177.55,-38.17,132.72,1
11059,2.23,4.03,6.98,187.79,13.23,125.09,1
11083,3.43,4.69,6.71,198.28,19.51,115.46,1
11109,4.22,4.78,6.1,216.33,20.85,102.35,1
11134,5.07,4.87,5.27,230.35,48.17,87.66,1
11158,6.2,4.68,4.87,242,41.7,66.07,1
11183,7.4,4.46,3.71,258.22,19.51,33.69,1
11208,7.83,3.86,1.92,272.36,-13.78,-10.03,1
11233,7.15,3.18,0.05,281.45,-58.3,-60.82,1
11258,5.25,2.26,-2.81,279.62,-66.83,-104.42,1
11283,4.54,4.14,-5.37,256.27,-94.82,-140.09,1
11308,2.72,3.74,-7.93,204.31,-188.84,-172.28,1
11332,-0.91,4.34,-9.55,151.02,-225.98,-196.3,1
11358,-3.58,5.6,-10.91,93.4,-255.18,-206.67,1
11383,-6.14,6.14,-11.49,28.77,-254.33,-203.56,1
11408,-9.02,5.64,-12.73,-38.73,-230.73,-189.72,1
11433,-10.82,4.95,-11.72,-106.78,-226.04,-163.44,1
11458,-11.86,5.02,-10.02,-168,-203.3,-133.13,1
11483,-11.29,3.36,-7.83,-216.9,-185.43,-111.12,1
11508,-11.23,2.71,-5.77,-256.96,-174.94,-89.11,1
11533,-10.28,1.48,-3.48,-287.45,-180.73,-67.34,1
11558,-9.83,0.99,-1.47,-305.38,-157.14,-41.37,1
11583,-10.7,-0.46,0.2,-314.46,-76.35,-11.06,1
11608,-10.76,-1.92,2.1,-316.84,-40.19,21.62,1
11632,-10.04,-2.22,4.57,-314.64,-94.09,52.78,1
11658,-11.77,-3.17,8.19,-303.79,-108.91,84.67,1
11683,-10.28,-2.48,12.3,-274.28,-67.93,106.25,1
11708,-9.42,-2.64,15.31,-224.03,-73.11,119,1
11733,-9.41,-2.07,18.16,-154.16,-92.93,134.73,1
11757,-8.89,-1.39,19.64,-72.15,-79.21,148.33,1
11783,-8.41,-1.57,18.2,9.13,-57.32,154.24,1
11807,-7.91,-2.16,15.61,69.93,-45.19,160.22,1
11832,-7.54,-2.08,12.72,109.38,-39.58,168.63,1
11858,-6.54,-1.7,10.14,132.06,-42.69,182.72,1
11882,-5.47,-0.96,8.51,143.03,-29.88,192.59,1
11908,-4.16,-0.09,8.16,146.27,-28.36,199.73,1
11932,-2.34,0.97,7.9,152.3,-36.22,199.48,1
11957,-0.78,1.9,7.69,161.69,-43.05,190.15,1
11983,0.37,2.95,7.91,176.45,-33.17,175.22,1
12007,1.57,3.38,8.02,189.62,2.31,159.3,1
12032,3.16,3.66,7.56,204.92,2.86,140.09,1
12056,4.9,4.41,7.08,225.78,-17.57,113.51,1
12082,6.14,4.01,5.21,249.99,-21.96,81.01,1
12106,7.65,3.47,3.23,264.56,-0.74,45.52,1
12131,8.86,3.15,1.17,271.27,-13.66,1.62,1
12157,9.55,3.28,-0.96,271.63,-63.97,-53.87,1
12181,8.68,3.25,-4.58,250.72,-37.08,-109.84,1
12206,7.54,4.23,-7.82,203.58,-160.31,-165.33,1
12231,3.38,3.94,-10.35,146.75,-164.76,-212.77,1
12256,0.46,5.89,-10.8,77.36,-239.15,-238.19,1
12281,-3.4,6.12,-11.25,12.91,-247.08,-246.06,1
12306,-6.44,6.01,-10.59,-46.35,-212.93,-242.46,1
12331,-7.98,5.09,-8.04,-96.9,-210.67,-237.1,1
12356,-9.59,4.77,-5.27,-131.11,-198.6,-231.49,1
12381,-10.41,4.14,-2.95,-156.72,-202.5,-215.57,1
12405,-10.58,2.94,-1.21,-180.01,-227.93,-194.54,1
12431,-10.76,1.47,0.38,-202.51,-273.6,-165.02,1
12456,-12.27,0.9,1,-224.71,-224.88,-121.73,1
12481,-12.94,-0.12,2.65,-239.22,-109.7,-65.76,1
12506,-12.67,-0.81,4.36,-243.73,-79.03,-12.83,1
12531,-12.8,-1.4,6.16,-240.68,-73.42,34.06,1
12556,-13.52,-3.32,7.37,-239.34,-48.3,82.47,1
12581,-13.09,-3.65,10.38,-232.57,-72.44,126.74,1
12606,-11.41,-3.53,11.87,-203.97,-90.55,159.18,1
12631,-11.43,-3.87,13.2,-167.39,-70.43,179.73,1
12656,-9.69,-3.63,15.56,-119.34,-73.48,198.39,1
12681,-8.43,-2.75,16.69,-58.79,-111.16,220.09,1
12706,-7.53,-2.09,16.12,11.15,-72.38,229.24,1
12731,-6.45,-1.95,14.47,69.5,-45.92,232.96,1
12756,-5.36,-1.79,12.03,109.07,-33.72,237.11,1
12780,-4.29,-1.24,10.18,131.08,-26.96,237.65,1
12806,-3.2,-0.26,9.01,142.91,-17.5,235.34,1
12830,-1.78,0.35,8.14,148.64,-20.86,229.91,1
12856,-0.47,1.66,7.72,152.79,3.41,217.41,1
12881,0.26,2.63,7.61,156.39,24.69,201.19,1
12905,0.94,3.39,7.57,161.63,41.46,183.2,1
12930,1.39,3.86,6.96,166.94,34.87,171.62,1
12955,2.51,4.59,6.71,172.79,59.45,164.3,1
12980,3.85,4.83,6.64,182.61,57.01,149.06,1
13005,4.97,5.29,6.6,199.86,32.07,128.88,1
13030,6.11,5.06,5.31,220.29,40.97,106.19,1
13055,7.22,4.35,3.7,234.25,53.23,78.57,1
13079,8.31,4.02,2.04,238.7,23.71,44.97,1
13105,9.3,4.01,0.73,237.79,-38.66,-0.94,1
13129,8.95,4.16,-1.51,232.91,-74.33,-56.61,1
13154,7.78,2.97,-4.44,215.23,-77.14,-111.12,1
13179,8.06,5.54,-6.85,180.78,-119.82,-163.93,1
13204,5.13,5.13,-9.51,124.32,-251.95,-222.1,1
13229,1.22,4.8,-10.34,53.89,-307.07,-264.41,1
13254,-2.55,4.87,-9.39,-11.54,-330.24,-283.68,1
13279,-5.85,4.48,-7.39,-68.18,-355.31,-284.78,1
13304,-9.26,4.31,-5.29,-112.08,-298.66,-270.08,1
13329,-11.19,3.64,-2.96,-141.47,-246.04,-241.67,1
13354,-12.16,3.21,-1.22,-164.83,-260.73,-204.17,1
13379,-13.86,2.46,0.29,-188.3,-282.2,-153.74,1
13404,-15.52,1.75,0.69,-208.3,-173.97,-88.93,1
13429,-15.83,0.23,1.2,-227.82,-65.25,-17.16,1
13454,-14.7,0.23,3.83,-236.84,-63.72,49.79,1
13479,-13.54,-0.62,5.28,-238.06,-60.31,99.3,1
13504,-12.56,-1.78,6.09,-238.24,-52.63,134.85,1
13529,-11.75,-2.91,7.05,-235.8,-44.76,164.18,1
13553,-11.32,-2.75,9.82,-228.55,-75.06,194.3,1
13579,-10.1,-2.15,12.4,-194.4,-77.75,220.22,1
13604,-8.67,-2.32,13.88,-151.41,-85.61,242.17,1
13629,-7.02,-1.9,15.8,-93.12,-103.54,257.59,1
13654,-5.43,-1.48,15.89,-24.59,-94.33,265.64,1
13678,-4.15,-1.35,14.82,42.18,-71.41,262.9,1
13704,-2.65,-1.05,13.7,95.05,-54.88,254.54,1
13728,-1.17,-0.82,12.32,130.78,-34.39,246.68,1
13753,-0.36,-0.27,10.54,157.06,-26.22,236.31,1
13779,0.45,0.18,9.6,174.92,20.73,225.64,1
13803,1.09,1.2,9.75,191.39,79.51,221.56,1
13829,2.2,1.77,9.26,196.88,119.14,213.87,1
13853,2.67,2.22,8.52,196.94,104.81,204.85,1
13878,3.54,2.7,7.91,204.62,85.42,196.56,1
13904,4.88,2.76,6.7,212.73,62.43,179.42,1
13928,6.72,2.74,5.05,214.25,39.32,154.06,1
13953,8.63,3.25,4.02,209.56,7.74,116.44,1
13978,9.97,3.95,3.13,206.33,-59.03,63.39,1
14003,10.67,4.33,2.51,204.13,-107.14,-3.75,1
14027,10.04,3.97,1.66,205.47,-142.75,-72.77,1
14053,9.45,3.6,0.66,199.5,-209.94,-140.09,1
14078,8.04,3.09,-0.63,185.47,-309.51,-209.84,1
14102,5.54,2.91,-2.95,166.08,-361.04,-278.68,1
14128,2.17,2.44,-5.24,120.66,-405.31,-332.52,1
14152,-3.22,1.57,-6.28,51.76,-433.29,-355.39,1
14177,-7.89,2.18,-6.23,-9.95,-400.67,-343.99,1
14203,-12.35,2.98,-5.77,-62.33,-360.18,-309.05,1
14227,-14.83,2.78,-4.46,-105.44,-293.54,-258.5,1
14253,-16.34,2.17,-3.2,-147.51,-258.9,-202.46,1
14277,-17.66,1.46,-2.25,-194.22,-234.27,-141.43,1
14303,-18.25,0.31,-0.52,-228.85,-128.54,-69.96,1
14328,-18.48,-0.49,1.54,-245.8,-42.26,5.4,1
14352,-16.59,-0.63,3.82,-250.07,-49.09,71.56,1
14378,-15.13,-2.25,3.86,-255.38,-71.1,128.39,1
14402,-14.11,-3.4,5.18,-257.02,-17.5,172.78,1
14427,-12.02,-3.2,7.47,-247.75,-14.27,204.55,1
14452,-10.86,-3.43,8.82,-229.22,-47.08,225.4,1
14477,-9.47,-3.56,10.05,-208,-64.33,240.09,1
14503,-7.64,-3.34,11.4,-181.11,-57.5,244.24,1
14527,-6.66,-1.78,13.28,-135.93,-89.21,241.5,1
14552,-5.7,-1.63,15.11,-82.33,-101.16,241.56,1
14577,-4.59,-0.81,15.64,-20.68,-92.63,242.47,1
14602,-4.07,-0.49,14.27,38.28,-57.32,235.4,1
14627,-4.46,-0.5,12.57,80.47,-22.69,228.14,1
14652,-3.52,-0.55,10.6,105.54,-36.53,236.07,1
14677,-2.03,-0.1,8.93,118.22,-46.77,243.2,1
14702,-1.87,0.67,7.79,122.49,-0.68,242.11,1
14727,-0.52,1.06,6.89,126.82,-14.03,243.08,1
14751,0.32,1.09,6.08,120.41,23.53,249,1
14776,2.43,2.02,7.72,110.29,65.54,250.28,1
14802,4.47,2.71,9.23,109.44,66.03,234.12,1
14826,5.58,3.57,9.4,131.51,3.41,204.42,1
14851,6.9,3.67,8.79,150.78,6.15,172.17,1
14876,8.55,3.46,7.02,162.12,-26.71,134.24,1
14901,9.96,4.11,4.81,166.88,-28.85,89.42,1
14926,10.88,4.18,3.01,157.36,-47.38,38.02,1
14951,11.5,5.11,3.44,147.73,-97.08,-21.92,1
14976,10.94,5.49,4.22,151.39,-139.39,-92.34,1
15000,8.76,5.14,4.42,161.33,-172.32,-147.71,1
15026,6.82,4.37,4.01,174.74,-190.49,-185.27,1
15050,5.71,3.37,3.42,195.9,-187.75,-219.29,1
15076,4.75,2.34,0.58,210.29,-208.11,-248.93,1
15101,3.57,1.4,-2.88,197.91,-251.22,-279.35,1
15125,1.54,1.68,-6.1,158.03,-293.84,-315.94,1
15151,-4.41,1.31,-8.8,81.63,-375,-335.51,1
15175,-9.96,2.3,-9.36,-9.71,-397.26,-318.13,1
15200,-13.49,4.17,-7.22,-84.52,-418.23,-271.79,1
15226,-14.96,5.22,-4.28,-136.84,-349.64,-206.73,1
15250,-15.54,4.3,-2.57,-171.35,-242.75,-142.16,1
15276,-15.35,2.99,-0.97,-198.79,-181.95,-81.98,1
15300,-14.04,2.33,0.86,-218.97,-148.42,-34.17,1
15326,-12.7,1.21,2.03,-236.11,-150.49,4.06,1
15351,-12.36,0.18,2.8,-248.91,-117.5,42.41,1
15375,-12.58,-1.15,3.4,-258.06,-45.49,87.23,1
15401,-12.02,-2.1,4.96,-262.51,-23.17,131.98,1
15425,-11.24,-3.4,6.8,-260.56,-25.07,171.56,1
15450,-10.33,-4.19,9.24,-248.79,-15.8,203.08,1
15475,-9.35,-4.74,12.17,-228.12,-5.92,221.25,1
15500,-8.66,-4.51,14.58,-193.73,-37.02,234.97,1
15526,-7.57,-3.45,17.41,-144.4,-42.44,247.29,1
15550,-6.33,-2.66,19.09,-67.57,-59.7,248.14,1
15575,-5.75,-2.52,18.15,7,-63.6,247.47,1
15600,-5.48,-2.17,16.28,71.33,-43.54,241.98,1
15625,-5.38,-2.21,13.29,118.89,-48.48,243.63,1
15650,-3.92,-2.28,10.6,146.63,-53.05,254.36,1
15675,-1.88,-1.92,8.38,160.35,-77.26,261.13,1
15700,0.08,-1.18,7.39,168.16,-53.24,253.2,1
15724,1.61,0.43,7.02,167.85,-19.94,229.24,1
15750,2.97,2.25,7.45,169.19,12.07,199.85,1
15774,3.31,3.35,8.33,177.06,14.75,175.46,1
15799,4,3.4,8.07,190.11,-13.91,160.09,1
15825,5.4,3.76,7.46,206.69,-27.02,142.05,1
15849,6.61,3.76,6.62,228.95,-25.61,117.35,1
15874,7.72,3.19,5.19,246.63,-7.02,89,1
15899,8.89,2.94,4.18,259.62,-36.41,52.66,1
15924,9.55,2.6,2.32,268.95,-76.41,10.89,1
15949,9.34,1.77,-0.6,270.9,-80.86,-28.26,1
15973,10.28,1.25,-2.02,268.4,-45.06,-67.04,1
15999,9.37,1.48,-4.7,254.99,-79.45,-118.32,1
16023,9.98,2.85,-7.54,211.75,-167.44,-165.94,1
16049,4.87,2.67,-10.59,150.47,-321.59,-220.88,1
16073,0.54,3.15,-13.04,69.86,-354.7,-258.74,1
16098,-4.15,3.56,-13.4,-29.28,-392.74,-252.77,1
16124,-7.27,5.04,-11.4,-109.1,-375.92,-225.82,1
16148,-8.62,5.55,-9.07,-168.97,-311.95,-194.11,1
16174,-8.84,4.65,-6.17,-209.4,-264.7,-169.23,1
16198,-9.36,4.47,-2.63,-232.33,-234.94,-149.23,1
16223,-9.87,3.62,-0.22,-243.61,-217.75,-132.83,1
16249,-9.29,2.08,2.17,-254.16,-260.43,-113.32,1
16273,-8.72,1.29,3.74,-262.63,-286.77,-86.43,1
16299,-8.08,0.72,4.96,-262.08,-258.42,-55.21,1
16323,-8.42,0.23,5.94,-252.51,-186.65,-24.6,1
16348,-9.49,-1.07,7.66,-238.85,-65.8,10.64,1
16373,-9.45,-1.7,9.37,-224.16,-51.83,52.84,1
16398,-9.98,-1.61,12.22,-208.12,-58.97,92.96,1
16423,-9.89,-2.9,14.23,-176.29,-32.14,129.73,1
16448,-9.79,-3.64,15.64,-131.47,6.64,161.56,1
16473,-9.12,-3.62,16.67,-80.74,26.46,184.36,1
16497,-9.57,-3.68,16.44,-33.49,29.51,208.08,1
16523,-9.25,-3.55,15.16,4.8,16.7,236.98,1
16548,-8.53,-2.73,14.63,39.99,-8.97,263.51,1
16572,-6.86,-2.15,13.63,76.08,-4.88,280.15,1
16598,-4.65,-1.56,12.03,102.18,0,288.63,1
16622,-2.46,-0.69,10.11,122.61,-12.08,284.54,1
16647,-0.65,0.24,9.16,133.95,2.37,266.92,1
16672,0.75,1.48,9.17,149.44,-0.49,238.63,1
16697,1.65,2.58,9.1,164.99,53.35,211.44,1
16722,2.09,3.17,8.75,177.3,61.82,188.69,1
16747,2.37,3.86,7.97,185.05,48.71,167.78,1
16772,2.57,4.18,6.81,195.78,36.95,149.85,1
16796,3.06,4.66,5.94,206.27,56.15,135.46,1
16822,4.14,4.48,5.28,213.46,41.4,121.8,1
16847,5.89,4.42,4.27,220.23,21.76,98.63,1
16871,7.79,4.56,2.38,221.94,16.76,61.19,1
16896,10.03,4.9,0.54,219.62,12.68,10.46,1
16921,10.95,5.11,0.21,211.51,-66.95,-54.96,1
16946,9.44,4.06,-2.31,201.81,-119.09,-127.1,1
16970,7.37,3.84,-6.18,165.66,-124.76,-184.29,1
16996,7.12,4.17,-7.16,100.6,-266.77,-228.19,1
17021,1.38,4.1,-9.1,32.49,-261.53,-263.62,1
17046,-1.64,5.53,-7.34,-25.74,-278.97,-280.94,1
17071,-5.26,4.45,-6.27,-77.08,-277.14,-280.88,1
17095,-8.1,4.38,-4.34,-119.34,-256.95,-269.54,1
17121,-10.44,3.61,-2.63,-156.41,-266.04,-253.01,1
17146,-11.61,2.35,0.29,-192.88,-310.12,-223.19,1
17171,-14.93,1.85,1.61,-222.75,-271.4,-176.37,1
17196,-16.22,1.07,3.64,-236.23,-133.05,-104.66,1
17221,-16.71,-0.07,4.52,-239.52,-88.72,-23.62,1
17246,-15.56,-0.32,5.57,-237.88,-90,50.4,1
17271,-15.5,-1.85,7.58,-233.85,-34.27,118.2,1
17296,-13.34,-2.05,9.86,-217.82,-38.6,171.8,1
17321,-12.53,-2.27,10.63,-193,-72.5,207.78,1
17345,-11.76,-2.72,11.82,-165.44,-58.85,239.06,1
17371,-9.76,-2.88,13.71,-128.24,-52.93,263.87,1
17395,-7.97,-2.41,15.54,-80.26,-75.25,278.2,1
17421,-5.47,-1.93,16.41,-21.29,-75.06,285.95,1
17446,-4.82,-1.82,15.19,35.05,-72.08,286.37,1
17470,-3.3,-1.74,13.45,84.86,-70.74,280.89,1
17496,-1.74,-1.7,11.78,121.21,-74.88,272.17,1
17520,-0.89,-1.2,10.67,146.39,-43.72,259.91,1
17545,0.67,-0.65,9.81,165.41,-33.54,247.29,1
17571,1.98,0.12,9.18,182.12,-43.48,228.26,1
17595,3.26,1.07,8.94,196.63,-12.38,205.34,1
17620,4.24,1.56,9.04,210.9,25.12,185.76,1
17645,5.15,1.51,7.62,221.57,26.28,168.26,1
17670,6.57,1.57,5.8,224.92,4.51,144.61,1
17694,8.81,2.07,3.89,219.62,-12.81,113.08,1
17720,10.99,2.84,2.54,211.69,-23.91,69.12,1
17745,12.69,3.37,0.97,206.51,-18.78,10.52,1
17769,14.5,3.69,0.67,193.64,-77.5,-61.37,1
17795,13.74,3.27,0.28,179.32,-148.72,-144.11,1
17819,11.43,2.41,-0.25,166.94,-171.83,-219.11,1
17845,8.65,1.34,-0.96,156.51,-180.92,-277.52,1
17870,5.73,0.52,-1.03,140.66,-246.71,-325.94,1
17894,2.24,-0.05,-1.91,113.16,-348.42,-378.5,1
17920,-1.03,-1.48,-1.45,49.8,-507.01,-424.29,1
17944,-6.38,-2.67,0.15,-45.19,-686.16,-441.3,1
17970,-12.21,-2.4,2.51,-143.79,-722.13,-410.57,1
17994,-15.93,-0.66,5.96,-210.8,-622.92,-333.38,1
18019,-19.16,-0.38,7.31,-237.27,-453.29,-216.91,1
18045,-19.81,-1.21,9.61,-239.03,-271.16,-75.64,1
18069,-18.86,-0.49,10.91,-214.1,-180.73,58.94,1
18095,-16.1,-2.85,11.29,-187.39,-29.88,163.33,1
18119,-13.6,-4.79,10.86,-177.63,74.81,232.84,1
18145,-11.52,-5.96,10.52,-175.56,90.24,274.73,1
18170,-10.94,-6.76,9.18,-181.05,106.58,301.07,1
18195,-10.1,-7.58,9.25,-190.93,104.57,319.85,1
18220,-9.96,-7.52,9.5,-190.68,70.97,332.47,1
18244,-9.04,-6.82,12.65,-178.43,52.37,341.13,1
18270,-7.58,-5.49,16.47,-147.75,40,337.78,1
18295,-5.86,-4.07,18.6,-98.18,-20.07,322.65,1
18319,-5.08,-2.23,19.65,-22.21,-73.78,298.02,1
18345,-4.3,-1.6,18.9,57.85,-71.83,269.97,1
18369,-3.32,-1.4,15.67,125.96,-82.5,247.72,1
18395,-4.13,-1.3,11.22,166.88,-53.11,230.28,1
18419,-3.34,-1.5,7.88,183.03,-52.26,229.3,1
18444,-1.58,-0.94,5.49,174.92,-43.78,227.96,1
18470,0.09,0.5,4.71,153.1,-42.14,214.79,1
18494,1.34,2.1,5.51,135.78,-19.27,197.47,1
18519,2.71,3.03,6.67,132.12,-26.41,179,1
18544,4.51,3.82,7.47,138.1,-19.64,152.47,1
18569,7.07,4.31,7.93,151.45,-56.1,117.66,1
18594,8.67,4.82,7.48,168.95,-69.64,73.14,1
18619,9.67,4.58,6.48,189.31,-59.27,19.55,1
18644,9.74,4.12,4.92,206.63,-77.69,-34.11,1
18668,9.25,3.79,3.83,221.63,-88.11,-81.79,1
18693,8.15,2.77,2.54,238.09,-78.91,-125.27,1
18718,6.5,2.29,0.99,251.88,-86.16,-160.33,1
18743,5.27,1.54,-0.61,263.95,-96.83,-187.1,1
18768,4.44,0.81,-3.25,265.66,-90.13,-214.66,1
18793,2.9,1.45,-7.68,243.34,-113.66,-239.66,1
18818,-0.78,1.81,-11.88,168.4,-250.18,-252.52,1
18843,-5.14,2,-14.69,69.19,-264.88,-256.55,1
18868,-8.08,4.34,-14.35,-33.43,-301.4,-248.93,1
18893,-11.46,4.87,-11.52,-124.83,-345.85,-218.74,1
18918,-13.17,4.81,-8.05,-190.93,-300.31,-172.1,1
18943,-14.6,3.34,-4.33,-233.3,-253.84,-122.65,1
18968,-15.3,2.83,-1.49,-257.39,-172.44,-67.46,1
18993,-14.09,1.65,0.81,-269.95,-173.72,-9.17,1
19018,-13.71,0.67,2.88,-272.94,-217.32,40.89,1
19043,-14,-0.56,3.4,-269.34,-79.09,86.44,1
19068,-14.17,-1.71,5.25,-265.19,4.14,134.79,1
19093,-12.22,-1.62,7.66,-252.81,-23.6,179,1
19118,-11.05,-1.82,9.48,-233.73,-59.76,215.22,1
19142,-9.65,-2.02,11.36,-205.86,-39.94,237.04,1
19168,-8.4,-2.25,13.81,-171.23,-35.37,247.53,1
19193,-6.55,-1.25,15.84,-124.1,-47.32,254.18,1
19218,-4.94,-0.7,16.78,-71.29,-61.77,256.68,1
19243,-3.52,-0.63,17.04,-10.62,-52.99,251.5,1
19267,-2.15,-0.42,16.09,54.56,-63.85,242.41,1
19293,-1.01,-0.37,14.99,108.46,-63.85,230.22,1
19317,0.7,0.1,13.12,149.25,-45.61,211.13,1
19343,1.02,0.5,11.1,177,-36.47,188.08,1
19368,2.02,0.9,9.95,194.86,-21.1,168.08,1
19392,3.24,1.98,9.98,213.64,4.26,147.35,1
19417,4.98,2.7,10.5,237.49,28.41,120.28,1
19442,5.56,2.61,9.41,263.89,42.5,92.9,1
19467,6.32,2.12,7.39,287.3,21.64,63.75,1
19492,7.23,1.69,4.91,301.51,14.63,31.5,1
19517,8.01,1.15,2.28,310.35,11.4,-0.76,1
19542,8.55,0.66,-0.67,305.72,-4.21,-36.98,1
19566,9.26,0.78,-3.32,286.69,-43.66,-79.84,1
19591,9.52,1.38,-5.87,255.23,-95,-132.77,1
19616,9.04,3.17,-9.21,197.18,-170.31,-185.09,1
19641,5.17,3.81,-12.12,111.75,-314.45,-238.13,1
19667,-0.16,4.28,-12.55,25.23,-378.42,-276.67,1
19691,-5.37,4.81,-10.58,-55.32,-339.76,-278.07,1
19716,-8.71,4.08,-7.83,-122.21,-351.16,-253.56,1
19741,-10.1,4.47,-4.64,-171.84,-354.94,-212.04,1
19766,-10.51,3.89,-2.62,-206.47,-303.78,-168.87,1
19792,-10.23,2.19,-0.65,-232.75,-264.21,-136.49,1
19816,-11.77,1.5,1.25,-253.91,-231.95,-100.21,1
19842,-12.17,0.02,3.31,-266.9,-197.62,-59.35,1
19866,-12.89,-0.96,5.44,-274.22,-154.15,-12.28,1
19891,-12.76,-2.1,7.23,-273.06,-120.37,36.99,1
19917,-12.8,-2.41,9.17,-261.6,-73.36,90.4,1
19941,-12.37,-3.84,10.52,-242.02,-65.25,144.73,1
19967,-11.66,-5.09,11.44,-218.79,-50.86,194.42,1
19991,-9.43,-4.43,14.2,-185.25,-64.33,229.73,1
20016,-7.86,-3.82,16.52,-138.24,-47.02,250.34,1
20041,-5.99,-3.88,17.71,-85.19,-30.8,252.35,1
20066,-5.27,-3.57,18.24,-26.05,-47.2,255.64,1
20092,-5.04,-2.84,17.92,39.19,-60.55,250.7,1
20116,-4.45,-2.57,16.71,99.68,-53.48,249.36,1
20141,-3.45,-2.56,14.56,148.28,-50,247.47,1
20166,-2.27,-2.37,12.12,181.08,-39.33,243.69,1
20191,-1.66,-1.48,10.31,200.53,-18.36,235.7,1
20216,-0.44,-0.89,8.76,211.2,-20.8,226.31,1
20241,0.72,0.03,7.78,214.44,-36.16,214.48,1
20266,2.31,1.22,7.21,213.34,-1.22,196.98,1
20290,3.92,2.34,7.83,218.89,39.14,171.56,1
20316,4.5,2.52,7.23,228.16,30.42,146.07,1
20340,5.84,2.82,6.06,231.27,6.52,122.23,1
20365,7.62,3.23,5,236.2,-23.17,91.07,1
20391,8.74,3.29,3.07,242.73,-25,49.42,1
20415,9.72,3.08,0.84,242.18,-6.35,4.97,1
20440,10.78,3.07,-0.52,229.07,-32.26,-44.96,1
20464,11.13,3.39,-0.68,216.81,-115.67,-103.68,1
20490,10.23,2.31,-1.84,206.88,-163.17,-170.09,1
20515,7.27,1.59,-4.77,185.47,-171.04,-230.82,1
20540,6.34,2.35,-6.91,142.06,-220.73,-273.5,1
20565,1.19,2.21,-9.56,75.54,-323.84,-312.1,1
20589,-3.78,2.04,-9.91,-5.38,-344.57,-325.51,1
20615,-8.84,2.75,-8.92,-80.5,-331.1,-313.8,1
20639,-12.94,2.16,-6.48,-143.61,-320.06,-274.47,1
20665,-15.45,2.64,-2.99,-192.08,-338.9,-219.78,1
20690,-15.14,2.15,-0.1,-226.6,-318.78,-165.02,1
20714,-16.35,1.94,2.54,-248.61,-259.94,-103.32,1
20740,-17.73,-0.28,3.83,-260.68,-193.3,-31.49,1
20764,-17.55,-0.76,5.03,-262.2,-158.48,46.8,1
20790,-15.29,-1.72,6.9,-254.71,-62.08,119.97,1
20815,-13.43,-2.58,8.6,-237.57,-26.65,180.09,1
20839,-11.45,-3.08,10.12,-214.71,-31.77,221.56,1
20865,-10.02,-3.7,11.06,-190.5,-31.41,246.8,1
20889,-9.07,-3.98,12.24,-167.51,-40.55,261.01,1
20915,-7.39,-3.51,14.57,-142.08,-53.11,270.76,1
20939,-4.99,-2.54,15.96,-96.47,-74.27,272.35,1
20965,-4.5,-2.11,16.6,-38.37,-88.6,263.75,1
20990,-3.23,-1.71,16.53,23.65,-77.63,255.22,1
21014,-2.2,-1.56,15.45,78.65,-95.92,246.86,1
21040,-0.68,-0.83,13.96,125.6,-69.76,234.12,1
21064,0.17,-0.27,12.27,162.61,-38.78,221.37,1
21089,1.01,0.31,11.08,192.61,16.03,210.58,1
21115,2.41,1.18,11.11,218.34,57.5,197.35,1
21139,3.58,1.42,10.79,237.67,40.73,174,1
21164,3.92,1.83,10.25,258.95,72.01,148.75,1
21189,4.9,1.51,8.8,274.74,82.19,130.52,1
21214,5.25,1.09,6.38,285.72,80.06,113.2,1
21239,6.2,0.99,4.35,291.08,76.4,92.47,1
21264,7.48,1.31,2.18,282.3,61.89,66.25,1
21289,8.74,2.16,-0.06,260.66,38.84,31.25,1
21313,10.31,2.8,-0.61,231.75,15.67,-7.28,1
21339,11.21,3.87,-2.56,201.45,-106.28,-66.67,1
21363,9.62,4.32,-5.59,163.28,-131.22,-132.04,1
21388,7.77,4.88,-6.99,112.18,-226.22,-185.57,1
21414,4.9,5.61,-7.39,63.71,-268.29,-229.78,1
21438,2,5.13,-7.05,10.96,-308.23,-258.99,1
21463,-1.4,4.42,-6.7,-40.32,-315.55,-272.58,1
21488,-4.7,3.82,-5.75,-84.46,-274.33,-275.82,1
21513,-7.08,3.38,-4.16,-122.69,-250.79,-269.11,1
21539,-9.74,2.72,-2.11,-158.73,-243.72,-254.66,1
21563,-11.51,1.85,0.38,-192.69,-298.11,-230.57,1
21588,-11.72,1.45,3.27,-223.67,-378.05,-191.67,1
21613,-12.01,0.34,4.68,-249.46,-369.21,-149.35,1
21638,-13.35,-1.78,5.06,-269.83,-265.43,-98.99,1
21663,-16.82,-2.47,7.02,-275.38,-106.53,-19.9,1
21688,-14.82,-3.04,10.88,-258.12,-76.1,67.41,1
21714,-13.32,-2.45,12.74,-220.19,-99.7,141.62,1
21738,-12.83,-4.31,13.06,-178.61,-47.69,195.15,1
21763,-10.72,-5.04,14.65,-141.11,-36.71,237.59,1
21788,-8.32,-4.67,15.75,-97.33,-59.7,260.09,1
21813,-6.73,-4.43,15.94,-53.61,-58.48,267.29,1
21839,-4.15,-3.63,16.12,-5.2,-77.93,267.23,1
21863,-3.38,-3.15,15.38,45.29,-81.47,255.15,1
21888,-2.37,-2.48,14.6,92.18,-71.65,237.11,1
21913,-1.51,-2.06,13.44,133.04,-68.91,218.94,1
21938,-0.53,-1.5,11.68,161.69,-62.81,204.73,1
21962,0.46,-0.53,10.61,180.72,-49.52,185.64,1
21988,1.68,0.38,9.57,193.89,-43.97,163.57,1
22013,2.1,1.16,8.58,203.52,-44.7,141.13,1
22037,2.4,2.21,7.89,210.78,-16.35,117.66,1
22063,3.29,3.18,7.63,219.62,18.84,96.38,1
22087,3.94,3.57,7.41,229.56,40.54,78.14,1
22112,4.47,4.12,6.91,240.05,48.23,61.99,1
22138,4.41,4.08,5.94,253.52,36.28,45.22,1
22162,4.29,3.86,4.73,268.64,56.82,29.91,1
22187,4.56,3.75,3.49,284.92,84.2,20.16,1
22211,5.54,3.45,1.96,296.94,85.3,12.84,1
22237,5.98,2.59,-0.92,301.14,76.82,1.99,1
22261,6.99,2.38,-4.5,285.53,90.18,-16.37,1
22286,7.69,2.18,-7.71,241.2,49.87,-44.48,1
22312,9.1,4.04,-12.48,172.18,-61.65,-84.05,1
22336,7.53,6.46,-14.11,101.39,-97.93,-140.27,1
22361,4.99,7.42,-14.06,26.82,-191.65,-188.38,1
22386,0.48,6.89,-13.84,-59.59,-267.99,-211.61,1
22411,-2.76,5.13,-11.88,-144.1,-327.44,-207.77,1
22437,-4.26,4.26,-8.4,-209.4,-294.51,-184.78,1
22461,-4.98,4.75,-5.65,-250.74,-264.51,-163.56,1
22486,-6.12,3.74,-2.85,-275.19,-211.22,-146.67,1
22511,-6.36,2.66,0.55,-295.13,-235.31,-134.17,1
22536,-7.36,2.18,2.97,-309.58,-279.15,-120.27,1
22562,-9.12,1.17,5.09,-313.36,-255.31,-91.06,1
22586,-11.56,-0.01,8.11,-298.79,-166.22,-43.99,1
22611,-12.57,-0.66,10.86,-267.08,-85.8,14.55,1
22636,-12.7,-0.97,13.53,-225.38,-57.14,79.36,1
22661,-11.68,-0.68,15.99,-171.05,-24.33,137.78,1
22686,-9.77,-1.58,16.98,-116.66,-29.94,177.53,1
22711,-8.12,-2.02,17.61,-68.91,-39.21,200.4,1
22736,-6.22,-2,17.74,-23.98,-55.37,211.01,1
22761,-4.72,-1.26,17.76,22.98,-45.43,206.68,1
22786,-3.25,-0.83,17,70.78,-35.92,195.58,1
22810,-1.73,-0.43,15.52,119.44,-46.04,183.33,1
22836,-0.48,-0.13,13.5,154.86,-38.3,167.47,1
22861,0.76,0.38,12.37,181.63,-28.66,148.02,1
22885,1.52,1.5,11.19,209.86,-20.74,127.66,1
22911,2.51,2.32,9.88,227.61,-8.17,111.5,1
22935,3.27,2.82,8.26,234.56,-19.03,96.13,1
22960,4.06,3.34,7.18,237.42,4.57,75.58,1
22985,4.8,3.95,6.1,245.17,-4.52,47.6,1
23010,4.4,4.11,4.51,251.45,8.84,20.89,1
23035,3.95,3.79,3.34,254.13,26.34,2.23,1
23059,2.93,3.83,2.32,256.45,34.39,-5.33,1
23085,3.54,3.69,1.58,259.07,13.84,-7.4,1
23109,4.36,3.23,0.06,264.56,-0.98,-20.03,1
23134,4.91,2.92,-2.29,263.77,21.64,-41,1
23159,3.76,3.51,-7.23,237.3,65.6,-60.88,1
23184,6.08,3.43,-10.5,187.42,-94.58,-77.65,1
23209,4.55,4.84,-13.66,114.62,-153.05,-109.54,1
23233,2.48,5.48,-15.4,38.34,-184.76,-136.31,1
23259,0.13,5.72,-14.8,-32.09,-172.87,-148.68,1
23283,-2.27,6.25,-12.48,-83.37,-145.86,-148.74,1
23309,-4.13,6.7,-9.96,-116.23,-137.44,-140.82,1
23334,-5.41,6.3,-8.17,-138.97,-136.71,-131.61,1
23358,-6.24,5.96,-6.81,-161.11,-137.5,-125.76,1
23384,-7.59,4.79,-5.37,-186.78,-140.8,-117.1,1
23408,-8.15,4.08,-2.92,-206.66,-140.73,-105.09,1
23434,-8.29,4.02,-0.99,-220.44,-153.23,-95.21,1
23459,-9.28,2.39,0.34,-234.71,-129.94,-83.07,1
23483,-9.68,0.97,1.49,-250.38,-110.61,-65.64,1
23509,-12.1,0.18,3.39,-266.23,-78.11,-37.83,1
23533,-13.7,-0.63,5.45,-275.25,-17.63,6.62,1
23558,-13.84,-2.15,8.44,-265.92,37.43,55.58,1
23583,-12.07,-1.67,11.7,-242.02,-56.89,107.17,1
23608,-12.78,-2.12,14.26,-199.71,-43.54,156.62,1
23634,-11.3,-1.39,16.37,-142.02,15.97,197.96,1
23658,-8.93,-0.9,17.27,-81.23,-5.19,219.12,1
23683,-8.03,-0.91,16.96,-21.96,-16.59,231.86,1
23708,-5.86,-0.13,16.66,32.12,11.64,234.91,1
23733,-5.23,0.5,15.46,79.74,5.12,225.7,1
23758,-3.92,1.12,13.95,114.07,-9.27,218.63,1
23783,-3.4,2.03,12.1,138.28,-26.47,210.4,1
23808,-2.41,3.02,11.41,158.64,2.68,207.72,1
23832,-1.48,3.79,10.16,177.73,6.89,208.81,1
23858,-0.21,3.78,8.24,189.19,-17.63,210.15,1
23882,0.43,4.09,6.28,194.38,-1.96,209.3,1
23907,1.6,4.03,5.42,198.95,16.95,207.96,1
23933,2.84,3.81,4.35,202.36,32.37,207.29,1
23957,4.73,3.63,3.93,201.33,21.76,201.86,1
23982,6.34,3.37,3.15,203.03,9.69,188.33,1
24007,8.88,2.67,1.62,207.49,12.62,164.24,1
24032,11.76,2.76,0.09,199.8,32.74,127.41,1
24057,14.19,3.08,-1.79,182.24,-11.89,75.28,1
24082,14.98,2.78,-4.08,153.03,-83.17,13.57,1
24107,15.03,3.78,-6.23,113.28,-114.64,-48.56,1
24131,12.58,4.4,-7.55,76.51,-138.05,-100.76,1
24157,10.39,5.2,-7.94,42.3,-169.39,-139.96,1
24181,8.04,5.35,-8.56,6.57,-188.05,-171.98,1
24206,5.82,4.91,-8.3,-33.49,-205.43,-190.82,1
24232,4.34,4.82,-7.21,-66.17,-212.08,-202.65,1
24256,2.27,5.13,-6.28,-89.52,-196.59,-212.34,1
24281,0.1,4.93,-5.61,-107.82,-189.15,-216.55,1
24306,-1.43,4.82,-4.81,-127.76,-210.49,-215.51,1
24331,-3.55,4.68,-4.26,-150.93,-242.08,-209.54,1
24357,-5.1,4.01,-3.33,-175.19,-244.39,-194.66,1
24381,-7.72,2.65,-2.22,-199.71,-223.78,-175.94,1
24406,-10.68,2.01,-0.23,-218.06,-167.26,-143.81,1
24431,-12.32,0.93,1.5,-232.14,-134.27,-96.31,1
24456,-12.95,1.09,3.76,-237.14,-123.36,-38.5,1
24482,-13.55,0.41,5.78,-235.44,-55.55,17.41,1
24506,-12.97,0.15,7.79,-226.29,-22.93,65.83,1
24531,-11.49,0.09,9.25,-205.86,-76.22,109.79,1
24556,-11.33,-0.86,9.3,-183.3,-35.92,149.73,1
24581,-10.02,-1.89,10.06,-170.8,6.58,190.58,1
24606,-8.47,-1.97,11.25,-158.67,-25.19,221.5,1
24631,-6.08,-1.29,13.32,-137.69,-4.88,235.52,1
24656,-3.95,-0.25,16.18,-106.23,-17.93,235.03,1
24681,-1.65,0.79,18.96,-57.76,-30.25,224.06,1
24706,-0.16,1.74,19.64,10.35,-56.71,197.65,1
24730,1.5,1.5,19.04,69.74,-51.04,172.78,1
24756,2.17,1.92,17.17,119.99,-57.75,147.11,1
24781,2.82,2.51,14.82,155.84,-63.91,117.05,1
24805,3.21,3.43,12.53,176.57,-71.71,87.84,1
24831,3.46,4.25,10.63,191.27,-77.14,63.14,1
24855,3.43,5.27,8.88,199.92,-66.65,45.95,1
24880,3.02,5.65,7.59,210.29,-56.47,31.56,1
24905,3,5.48,6.2,222.61,-46.59,23.63,1
24930,3.54,5.51,5.13,232.91,-19.64,21.62,1
24955,4.12,5.26,3.69,242.85,-9.15,16.38,1
24980,4.44,4.7,1.95,246.57,1.52,9.43,1
25005,4.68,4.5,0.01,242.3,9.63,1.32,1
25029,5.21,4.79,-1.69,231.08,26.89,-9.66,1
25054,6.42,4.75,-2.88,216.27,-1.22,-25.88,1
25079,6.51,5.24,-5.44,196.21,-58.66,-48.68,1
25104,5.55,6.22,-8.83,164.5,-55.86,-69.11,1
25129,4.6,5.98,-11.39,110.66,-92.14,-78.93,1
25153,3.25,6.13,-13.3,46.63,-140.92,-87.65,1
25179,2.18,6.82,-13.28,-17.57,-159.09,-92.46,1
25203,0.96,6.79,-12.22,-70.01,-123.3,-95.33,1
25228,0.6,7.71,-9.49,-103.49,-118.91,-101.24,1
25254,-0.77,7.06,-7.86,-129.1,-132.93,-105.57,1
25278,-1.24,6.67,-6.03,-152.21,-162.75,-107.1,1
25304,-2.54,6.16,-4.69,-172.45,-176.59,-103.93,1
25328,-3.73,5.48,-3.18,-189.89,-178.54,-94.78,1
25353,-3.48,4.79,-1.93,-206.41,-199.76,-86.92,1
25379,-4.25,4.04,-1.06,-223.85,-166.59,-81.73,1
25403,-5.1,3.08,0.62,-239.58,-115.43,-74.17,1
25428,-6.42,2.07,2.74,-250.68,-106.34,-64.84,1
25453,-8.93,0.66,4.39,-256.6,-17.02,-42.71,1
25478,-8.96,0.14,7.43,-253,-5,-13.68,1
25502,-9.27,0.1,9.13,-235.74,-30,20.28,1
25528,-9.68,-0.63,9.88,-214.95,2.56,52.35,1
25553,-10.05,-0.67,11.14,-189.4,24.81,87.72,1
25577,-11.08,-1.23,10.81,-167.21,53.78,133.02,1
25603,-9.9,-1.8,11.98,-153.06,19.51,180.22,1
25627,-7.92,-2.57,14.23,-124.1,15.79,214.61,1
25652,-5.86,-2.52,15.62,-84.16,-11.53,232.78,1
25678,-4.64,-1.76,17.02,-36.54,-12.87,242.72,1
25702,-2.23,-1.12,17.77,14.87,-20.74,239.3,1
25727,0.01,0.54,17.85,61.21,-27.08,226.86,1
25752,0.75,2.09,16.96,111.63,-36.53,201.86,1
25777,1.18,1.69,15.64,152.85,-2.02,176.5,1
25801,2.17,1.62,14.52,178.28,-8.17,163.33,1
25827,2.67,3.2,13.68,197,-9.76,143.81,1
25852,3.64,4.25,12.37,222.06,-28.17,127.78,1
25876,4.66,4.58,11.19,248.83,-17.57,108.08,1
25902,5.01,4.67,10,273.34,-3.78,83.51,1
25926,4.72,4.44,8.25,292.3,11.82,70.4,1
25951,5.06,3.64,6.32,310.72,33.84,63.33,1
25977,5.25,3.18,4.16,324.07,75.85,58.63,1
26001,6.11,2.38,2.11,330.53,70.36,51.92,1
26026,7.77,1.42,-0.17,327.12,54.2,36.31,1
26050,9.02,0.86,-3.47,310.53,25.91,5.16,1
26076,9.68,1.41,-7.94,269.38,-13.24,-32.53,1
26100,9.09,2.3,-11.26,197.12,-122.2,-67.65,1
26125,8.21,3.97,-13.63,115.47,-276.71,-106.12,1
26151,5.46,4.81,-14.89,31.45,-308.96,-129.78,1
26175,2.72,5.83,-15.2,-31.23,-220.79,-137.22,1
26201,0.69,5.27,-14.27,-73.61,-118.66,-140.7,1
26225,-0.63,5.33,-12,-111.96,-111.65,-147.77,1
26251,-2.62,4.45,-9.97,-153.55,-179.45,-150.51,1
26276,-4.67,3.76,-8.99,-192.02,-180.86,-141,1
26300,-5.92,2.19,-6.82,-223.91,-153.11,-130.63,1
26326,-6.47,1.34,-4.04,-253.06,-168.11,-119.35,1
26350,-7.99,1.38,-1.7,-276.05,-195.37,-96.37,1
26376,-8.36,0.46,0.11,-291.23,-214.7,-63.26,1
26400,-9.77,0.41,1.68,-301.47,-181.95,-20.7,1
26425,-11.65,-1.77,4.03,-309.16,-59.45,20.28,1
26451,-11.48,-3.37,7.05,-308.24,-52.02,61.13,1
26475,-11.98,-3.61,8.68,-294.58,-127.99,116.98,1
26500,-12.49,-4.13,11.44,-263.55,-78.6,179.85,1
26525,-9.87,-4.17,14.84,-214.64,-52.32,233.87,1
26550,-5.76,-2.22,18.79,-154.83,-73.72,259.61,1
26576,-0.58,-0.32,19.98,-82.88,-68.78,253.93,1
26600,1.47,-0.34,19.98,-1.84,-85.61,222.84,1
26625,2.25,-0.21,18.89,69.99,-66.41,177.66,1
26650,3.62,0.51,17.36,122.85,-39.94,130.89,1
26675,2.92,0.81,14.75,155.9,-31.96,88.75,1
26699,1.8,1.1,12.04,172.73,-32.2,66.38,1
26725,1.9,2.25,10.46,177.36,-49.03,61.07,1
26750,2.08,4.17,9.25,183.03,-54.7,60.95,1
26774,3.3,4.93,8.7,194.19,-30.07,58.21,1
26800,4.98,5.52,8.4,202.67,-32.14,48.02,1
26824,5.37,6.68,7.34,207.85,-47.26,23.45,1
26849,5.23,7.71,6.5,215.78,-20.43,0.89,1
26874,4.79,7.52,5.2,229.19,21.58,-10.09,1
26899,5.12,6.82,3.56,233.95,40.54,-17.4,1
26924,5.32,6.31,1.76,232,7.13,-33.14,1
26948,5.18,5.98,-0.08,230.47,47.5,-48.68,1
26973,4.87,5.6,-1.52,229.5,89.57,-60.94,1
26999,4.67,5.44,-2.79,220.96,61.28,-67.04,1
27023,4.64,5.26,-4.82,207,30.91,-75.39,1
27048,3.27,5.55,-7.93,178.03,20.3,-88.13,1
27073,4.08,5.97,-10.43,136.88,-64.03,-91.37,1
27098,2.04,6.27,-12.11,87.36,-58.36,-98.13,1
27122,1,6.55,-13.03,34.99,-72.26,-101.79,1
27148,-0.59,6.95,-13.09,-22.57,-85.55,-99.11,1
27173,-2.17,6.81,-12.11,-73.12,-119.03,-90.63,1
27197,-3.16,6.68,-10.27,-108.49,-125.13,-81.92,1
27223,-3.66,6.73,-8.5,-132.76,-111.34,-76.12,1
27247,-4.24,6.25,-6.65,-157.51,-127.56,-69.9,1
27272,-4.57,5.75,-5.23,-185.07,-191.4,-59.54,1
27298,-4.67,4.78,-3.94,-211.84,-230,-46.49,1
27322,-4.76,3.86,-1.96,-233.49,-210.73,-32.28,1
27347,-4.45,4.04,0.56,-250.07,-201.77,-21,1
27372,-4.72,2.96,2.09,-262.88,-233.36,-3.01,1
27397,-5.95,1.73,3.4,-268.67,-167.5,26.74,1
27421,-4.81,0.54,6.68,-265.74,-88.72,48.02,1
27447,-3.24,-0.02,8.83,-253.06,-101.53,62.9,1
27472,-4.27,0.03,11.2,-228.18,-34.76,74.55,1
27496,-4.05,-0.58,13.38,-190.32,47.43,84.91,1
27522,-3.57,-0.13,15.09,-140.25,37.98,92.72,1
27546,-3.25,-0.24,16.5,-90.38,52.43,96.99,1
27571,-2.66,0.29,17.97,-35.44,74.2,97.53,1
27597,-1.39,1.2,18.59,19.38,77.8,91.56,1
27621,-1.68,1.41,17.73,70.35,60,77.9,1
27646,-2.31,2.11,16.65,110.54,52.86,66.5,1
27670,-2.19,3.29,16.27,147.55,47.13,62.96,1
27696,-2.12,4.25,15.12,183.22,50.97,61.25,1
27720,-1.95,5.21,13.11,211.45,45.79,61.92,1
27746,-2.15,5.98,11.24,228.34,39.26,67.84,1
27771,-2.05,6.62,9.6,240.9,35.36,71.74,1
27795,-1.74,7.22,7.56,249.44,36.4,76.01,1
27820,-1.18,7.41,6.11,255.29,72.68,85.64,1
27845,-0.09,7.14,4.78,260.59,63.65,89.97,1
27870,0.29,6.51,3.24,266.81,58.47,88.14,1
27895,1.54,5.96,1.7,271.94,75.3,86.68,1
27920,2.2,5.03,-0.47,271.45,121.52,82.84,1
27945,4.21,5.05,-2.56,259.98,151.09,78.69,1
27969,6,4.81,-6.76,235.05,83.71,61.8,1
27994,6.82,5.18,-8.02,196.57,0.97,38.27,1
28019,7.22,5.03,-10.5,152.12,-20.19,7.41,1
28044,7.19,6.14,-12.49,101.02,-31.96,-23.2,1
28069,6.1,6.07,-14.09,46.88,-64.21,-50.15,1
28094,5.36,5.68,-13.79,-11.23,-102.14,-70.82,1
28119,4.24,5.94,-13.05,-58.49,-126.34,-93.07,1
28143,2.87,5.63,-11.82,-97.15,-122.14,-117.16,1
28169,1.24,5.03,-10.14,-129.65,-133.97,-139.23,1
28194,-0.01,4.47,-8.29,-158.24,-152.32,-156.18,1
28219,-1.35,3.72,-6.62,-181.84,-168.11,-168.74,1
28244,-3.04,3.06,-5.31,-201.72,-179.09,-177.34,1
28268,-4.34,1.69,-4.04,-223,-189.76,-182.46,1
28294,-5.63,-0.02,-2.25,-246.9,-195.19,-183.99,1
28318,-7.03,-1.26,-0.48,-272.57,-194.03,-176.06,1
28344,-9.35,-1.84,2.04,-289.28,-202.32,-151.91,1
28369,-10.58,-1.73,5.31,-293.42,-199.76,-110.51,1
28393,-12.28,-2.16,7.62,-278.97,-143.48,-50.57,1
28419,-14.03,-2.91,9.81,-250.56,-79.33,19.06,1
28443,-12.99,-3.92,11.99,-215.62,-41.83,92.05,1
28469,-11.49,-3.11,13.28,-171.84,-46.28,148.94,1
28494,-10.14,-3.26,13.82,-124.71,-44.64,189.42,1
28519,-8.94,-3.77,13.64,-80.5,-31.83,217.9,1
28544,-7.16,-3.63,14.02,-47.51,-22.57,240.89,1
28568,-4.53,-1.89,15.64,-12.33,-16.41,246.8,1
28594,-3.15,-0.91,16.64,30.23,-27.26,237.9,1
28618,-1.49,0.66,16.63,77.61,-37.08,222.17,1
28643,-0.31,1.54,15.92,120.66,-35.8,204.73,1
28669,0.53,2.25,14.8,156.27,-26.65,184.06,1
28693,1.77,2.83,13.23,184.44,-28.66,164.42,1
28718,2.52,3.72,11.75,205.11,-32.44,139.12,1
28743,3.22,4.65,10.41,217.67,-41.71,115.28,1
28768,3.4,5.87,9.28,234.44,-21.59,98.33,1
28793,3.78,5.99,7.75,254.31,-1.71,84.85,1
28818,3.63,5.78,5.81,263.83,18.96,78.14,1
28843,3.81,5.38,4.18,269.19,33.35,77.84,1
28867,5.09,5.25,2.63,273.83,47.74,72.11,1
28893,6.37,4.75,0.67,278.16,78.65,57.9,1
28917,7.24,3.51,-1.88,269.19,126.58,42.84,1
28942,9.56,4.11,-3.82,250.29,79.75,14.67,1
28967,11.14,4.38,-5.61,218.95,22.8,-25.33,1
28992,10.33,4.25,-7.69,179.13,-68.05,-75.45,1
29017,8.68,4.51,-9.59,128.1,-149.39,-121.73,1
29042,6.33,4.46,-10.66,66.76,-229.88,-157.65,1
29067,4.01,4.92,-11.44,7.79,-264.33,-179.72,1
29092,0.25,4.4,-11.62,-40.62,-222.01,-192.1,1
29117,-2.03,5.14,-10.16,-79.22,-189.15,-200.39,1
29142,-5.14,4.39,-8.9,-117.33,-217.14,-203.87,1
29167,-7.27,2.86,-6.65,-155.32,-233.78,-196.37,1
29192,-9.42,2.47,-5.2,-188,-290.55,-170.82,1
29216,-10.61,1.17,-3.33,-218.12,-318.9,-129.9,1
29242,-10.95,1.3,-0.57,-240.44,-306.71,-80.15,1
29267,-12.19,1.68,1.55,-245.8,-202.08,-27.53,1
29292,-13.63,1.18,3.77,-238.55,-97.32,25.4,1
29317,-13.28,0.34,5.91,-225.86,-62.81,79.55,1
29341,-12.12,-0.03,7.47,-207.33,-47.32,122.84,1
29367,-11.15,-1.32,9.16,-188.91,-10.25,158.94,1
29392,-8.42,-1.45,11.26,-168.18,-46.35,184.97,1
29417,-7.51,-1.25,11.87,-140.8,-39.21,203.51,1
29442,-6.43,-1.01,12.59,-110.86,-24.09,213.94,1
29466,-4.69,-1.07,14.01,-82.63,-13.11,219.12,1
29492,-2.7,0.07,15.69,-45.93,-25.8,216.19,1
29517,-0.83,1.7,16.42,-2.88,-33.6,202.05,1
29541,-0.15,2.13,16.46,42.73,-10.07,183.39,1
29567,0.93,2.46,15.68,84.8,-17.5,164.12,1
29591,1.27,2.83,13.88,119.86,-9.15,147.53,1
29616,1.9,3.69,12.97,142.49,7.43,134,1
29641,2.59,4.36,12.24,163.58,8.9,124.97,1
29666,3.21,4.71,10.94,182.18,2.98,116.92,1
29691,4,5.9,9.77,193.34,-0.98,107.78,1
29716,4.37,6.5,8.32,201.75,-35.43,91.5,1
29741,3.68,6.64,6.68,217.49,-39.76,73.33,1
29765,3.85,6.01,4.73,234.74,39.51,65.83,1
29790,4.96,5.6,3.75,243.7,82.56,64.36,1
29816,5.81,4.99,1.89,245.11,52.68,54.85,1
29840,6.38,4.67,-0.49,236.51,33.35,40.89,1
29865,7.54,4.41,-2.5,219.31,30.79,21.99,1
29889,9.26,4.85,-4.13,195.11,33.04,-4.29,1
29915,9.18,5.25,-5.29,168.95,-41.71,-40.7,1
29939,9.18,5.78,-5.9,142.67,-90.43,-87.16,1
29964,7,5.39,-8.37,106.63,-136.04,-134.23,1
29990,5.37,5.34,-10.39,53.95,-192.93,-162.28,1
30014,3.23,4.96,-11.36,-1.9,-226.04,-177.1,1
30039,0.93,5.78,-10.8,-47.39,-207.08,-190.63,1
30064,-1.54,5.79,-9.56,-85.8,-183.36,-199.78,1
30089,-4.45,4.62,-8.65,-124.46,-193.78,-198.07,1
30115,-6.58,3.94,-6.78,-161.84,-200.67,-184.54,1
30139,-7.55,3.58,-4.52,-193.61,-231.4,-164.96,1
30164,-8.76,3.41,-2.02,-219.58,-242.62,-137.52,1
30189,-9.31,2.58,0.46,-233.06,-239.21,-106.61,1
30214,-9.47,1.82,2.43,-240.44,-242.01,-75.21,1
30239,-10.23,1.22,4.42,-243.73,-217.14,-38.99,1
30264,-10.07,0.31,6.68,-240.5,-181.77,0.71,1
30289,-9.68,-0.8,8.35,-230.13,-160.92,39.67,1
30314,-9.54,-2.44,10.03,-215.07,-113.36,83.81,1
30339,-8.55,-3.49,11.85,-188.97,-101.16,134,1
30364,-6.52,-3.15,13.42,-154.65,-96.28,175.7,1
30389,-5.12,-2.55,14.43,-111.84,-41.77,198.2,1
30414,-3.67,-2.04,15.27,-65.13,-26.16,210.89,1
30439,-1.85,-0.74,16.63,-20.68,-10.61,214.79,1
30464,-0.26,-0.3,17.49,30.9,0.06,203.87,1
30488,1.32,0.66,18.22,79.32,17.13,186.31,1
30514,2.14,1.61,17.85,127.49,4.57,161.92,1
30538,1.52,1.6,16.22,170.6,2.13,143.27,1
30563,0.66,1.89,13.89,200.41,23.59,132.29,1
30589,0.67,2.69,11.75,215.35,13.35,135.77,1
30613,1.75,3.38,10.23,224.99,16.03,138.27,1
30638,3.81,4.18,8.67,226.08,9.32,130.4,1
30663,5.2,5.17,7,222.67,9.39,108.33,1
30688,6.09,6.22,7.45,224.44,25.12,80.16,1
30713,5.43,5.72,6.28,228.28,46.76,54.67,1
30737,5.68,6.06,5.25,232.3,70.48,39.24,1
30763,6.24,5.83,4.06,235.29,78.53,23.75,1
30787,6.02,5.33,2.15,232,42.56,6.44,1
30812,6.03,5.13,-0.96,221.2,68.04,-10.45,1
30837,6.47,5.19,-2.92,200.47,60.36,-27.83,1
30862,6.85,5.33,-5.39,170.66,1.58,-49.54,1
30887,6.53,6.42,-6.43,140.11,-53.05,-79.29,1
30911,5.07,6.6,-9.89,100.9,-62.93,-101.06,1
30937,4.2,7.21,-11.46,48.1,-114.33,-111.73,1
30961,3.03,7.5,-11.4,2.06,-145.31,-124.72,1
30986,1.39,7.55,-11.5,-37.39,-137.69,-137.65,1
31012,-0.13,7.06,-10.84,-80.19,-152.08,-145.76,1
31036,-1.09,6.81,-8.7,-122.08,-186.53,-151.61,1
31062,-2.75,6.12,-6.55,-156.41,-225.79,-154.48,1
31086,-4.43,5.3,-4.59,-187.33,-260.79,-148.44,1
31111,-5.86,3.84,-2.95,-215.44,-245.79,-135.94,1
31136,-7.1,2.04,-0.66,-239.03,-230.61,-120.27,1
31161,-9.37,1.19,2.49,-252.21,-175.25,-98.32,1
31187,-9.26,0.39,6.04,-253.24,-189.88,-64.72,1
31211,-8.56,0.79,7.43,-241.35,-222.08,-25.39,1
31236,-10.82,-0.59,8.4,-224.4,-105.8,18.82,1
31261,-11.14,-2.12,9.94,-205.86,-68.3,73.45,1
31286,-10.06,-2.02,11.04,-180.25,-102.99,128.02,1
31312,-8.66,-2.82,11.45,-148.06,-63.78,175.83,1
31336,-6.96,-3.46,12.54,-118.97,-20.43,214.42,1
31361,-5.5,-3.57,13.33,-88.79,-13.54,244.85,1
31386,-3.33,-2.93,14.97,-48,-13.42,270.15,1
31411,-0.73,-3.4,16.67,-0.99,3.23,279.36,1
31435,2.36,-3.24,17.88,39.87,9.39,273.08,1
31461,3.22,-2.28,17.83,83.4,-11.59,243.81,1
31486,3.73,-1.39,17.52,129.01,-7.32,209.06,1
31510,3.81,-0.58,16.43,170.6,-1.35,189.18,1
31536,4.44,0.38,14.93,202.97,24.87,167.23,1
31560,3.03,0.59,14.02,221.51,28.59,139.12,1
31585,2.61,1.66,13.64,243.09,6.03,125.28,1
31611,3.43,2.53,11.74,274.44,-21.04,122.59,1
31635,2.48,2.96,9.35,299.5,42.31,122.35,1
31660,4.13,2.59,7.77,315.84,24.69,127.59,1
31685,6.74,3.23,6.54,319.01,-41.53,114.12,1
31710,8.46,3.41,3.67,318.4,31.95,87.59,1
31735,10.17,2.73,0.35,318.22,58.17,59.49,1
31760,10.59,1.88,-2.99,296.81,72.19,29.79,1
31785,11.99,2.19,-5.77,254.5,34.45,-3.38,1
31809,12.6,2.54,-7.85,201.33,-39.94,-44.42,1
31835,12.78,3.97,-7.87,148.58,-124.94,-89.72,1
31859,9.84,4.18,-9.88,95.47,-170.8,-132.28,1
31884,9.12,4.64,-10.55,37.73,-246.65,-161.85,1
31910,6.53,4.74,-10.17,-12.57,-272.87,-190.21,1
31934,3.05,4.82,-10.03,-54.46,-268.9,-211.67,1
31960,-1,4.49,-9.73,-98.06,-271.34,-218.01,1
31984,-3.78,3.08,-7.99,-143.24,-275.79,-208.38,1
32009,-5.62,3.3,-6.25,-182.02,-295.79,-190.21,1
32035,-7.05,2.99,-3.89,-212.88,-288.9,-167.28,1
32059,-7.94,2.26,-2.14,-239.28,-268.6,-143.81,1
32085,-8.66,1.08,-0.61,-262.39,-275.55,-118.13,1
32109,-11.01,0.03,1.13,-279.7,-255.12,-77.4,1
32134,-12.92,-0.41,4.02,-285.07,-105.19,-24.78,1
32159,-13.71,-1.47,7.72,-272.45,-23.54,26.25,1
32184,-12.13,-1.23,10.41,-246.23,-77.99,79.55,1
32209,-11.96,-0.15,10.91,-206.84,-87.5,132.59,1
32234,-10.76,-1.53,10.96,-169.1,-43.78,178.87,1
32259,-9.48,-3.14,10.56,-144.28,-36.47,216.56,1
32284,-7.41,-3.98,11.02,-125.01,-63.72,248.63,1
32309,-5.72,-4.62,11.74,-104.71,-43.48,269.67,1
32335,-3.75,-4.97,13.15,-81.05,-14.58,278.39,1
32359,-1.76,-3.95,14.4,-52.45,-53.91,277.9,1
32384,-0.5,-3.05,15.18,-15.2,-51.35,276.13,1
32409,1.27,-2.53,15.55,28.52,-48.17,266.13,1
32434,2.95,-1.64,15.06,64.5,-32.08,248.14,1
32458,3.94,-1.27,14.09,92.36,-46.22,230.46,1
32484,4.32,-0.74,13.55,112.91,-23.42,210.83,1
32509,5.28,0.14,13.42,130.72,-23.66,186.92,1
32533,5.53,0.93,13.81,149.19,-10.07,172.96,1
32559,7.17,1.74,13.97,171.51,-29.58,156.56,1
32583,7.44,1.72,12.09,197.73,-59.33,129.3,1
32609,7.61,2.06,9.94,213.83,-44.09,103.2,1
32634,7.65,2.86,8.77,228.89,-24.09,76.99,1
32658,7.57,2.23,7.18,242.97,-8.36,58.88,1
32683,7.5,1.85,5.08,244.07,-8.97,50.28,1
32708,8.84,2.23,4.32,246.57,-30.31,33.75,1
32733,9.31,2.5,2.25,246.81,6.7,9.06,1
32757,10.23,2.58,0.49,237.12,-3.48,-14.66,1
32782,10.55,2.63,-1.57,218.77,-8.6,-39.48,1
32808,11.1,3.55,-2.63,194.8,-61.95,-73.38,1
32832,10.68,3.73,-3.91,169.07,-74.03,-114.29,1
32857,9.8,3.97,-5.15,138.77,-100.8,-153.01,1
32882,7.92,3.81,-7.15,87.79,-172.14,-183.01,1
32907,5.79,4.15,-8.23,24.13,-240.06,-201.55,1
32932,3.52,5.4,-8.45,-29.46,-252.01,-213.62,1
32957,0.63,5.28,-8.55,-73.85,-225.79,-219.23,1
