t_ms,ax,ay,az,gx,gy,gz,label
5,-1.27,8.13,5.29,-253.06,-142.75,419.42,0
29,-1.21,8.2,5.06,-9.77,-30.19,6.8,0
54,-1.32,8.18,5.09,-7.7,3.41,-13.38,0
79,-1.42,8.27,5.11,-6.6,-5.68,-22.89,0
103,-1.4,8.32,5.22,-17.09,-24.21,-27.1,0
128,-1.59,8.4,5.2,-25.32,-14.33,-24.11,0
152,-1.71,8.28,5.24,-29.28,-22.81,-14.05,0
177,-1.78,8.31,5.32,-29.52,-48.3,0.34,0
201,-1.66,8.23,5.24,-32.39,-74.15,8.88,0
227,-1.58,8.18,5.15,-32.82,-55.49,4.73,0
252,-1.65,8.11,5.1,-42.63,-29.64,-4.42,0
276,-1.67,8.17,5.24,-41.96,-23.11,-8.07,0
301,-1.73,8.21,5.25,-52.57,-32.93,-9.9,0
325,-1.84,8.14,5.42,-58.06,-38.54,-4.36,0
350,-1.84,8.11,5.66,-49.28,-31.53,7.84,0
375,-1.83,8.17,5.47,-40.26,-21.53,15.95,0
399,-1.63,8.25,5.45,-41.35,-29.7,21.8,0
425,-1.63,8.31,5.68,-40.19,-28.24,21.99,0
449,-1.7,8.21,5.62,-33.49,-31.28,28.27,0
474,-1.57,8.28,5.6,-31.84,-26.04,27.96,0
498,-1.61,8.32,5.58,-35.32,-13.6,28.45,0
523,-1.67,8.33,5.62,-29.04,-4.88,42.66,0
548,-1.56,8.46,5.47,-30.2,-44.52,52.35,0
573,-1.55,8.56,5.45,-48.67,-51.41,51.74,0
598,-1.6,8.43,5.72,-62.57,-39.46,51.19,0
622,-1.62,8.03,5.94,-49.77,-28.24,55.34,0
647,-1.49,7.77,5.87,-18.91,-46.35,60.52,0
671,-1.01,7.62,5.6,-4.16,-41.22,64.49,0
696,-0.71,7.65,5.39,-11.17,-57.14,55.71,0
721,-0.64,7.76,5.25,-30.62,-87.02,38.08,0
746,-0.59,7.82,5.26,-59.16,-81.77,10.16,0
771,-0.83,7.88,5.57,-86.54,-57.69,-12.28,0
795,-1.03,7.91,5.96,-96.29,-79.27,-18.62,0
820,-1.29,7.9,6.38,-90.93,-105.31,-14.11,0
845,-1.44,7.78,6.76,-58.67,-94.03,-0.27,0
869,-1.38,7.77,6.52,-24.46,-71.89,13.57,0
895,-1.09,7.8,6.35,2.79,-68.48,11.74,0
919,-0.94,7.8,6.09,13.52,-85.19,-4.23,0
944,-1.04,7.66,5.97,23.16,-67.5,-26.86,0
968,-1.09,7.65,5.81,27.79,-26.53,-48.14,0
993,-1.11,7.82,5.82,16.02,-6.47,-54.42,0
1018,-1.34,7.9,5.93,-4.77,-37.87,-50.27,0
1042,-1.42,7.79,6.14,-2.27,-52.38,-40.51,0
1068,-1.45,7.86,6.1,14.44,-29.27,-38.26,0
1092,-1.34,7.82,5.92,17.91,-15.67,-32.53,0
1117,-1.46,7.76,5.9,4.62,-21.16,-17.46,0
1141,-1.49,7.75,6.08,-1.29,-45,5.95,0
1166,-1.47,7.72,6.03,5.66,-63.11,34.91,0
1191,-1.26,7.68,5.9,13.28,-60.06,44.79,0
1216,-1.04,7.72,5.74,-0.2,-48.85,31.19,0
1241,-0.94,7.93,5.76,-27.88,-39.7,8.33,0
1265,-0.98,7.94,6.07,-43.91,-67.32,-7.77,0
1290,-1.27,7.87,6.25,-33.06,-79.82,-17.4,0
1315,-1.33,7.94,6.21,-19.95,-57.63,-33.07,0
1339,-1.41,8.01,6.38,-8.31,-11.41,-45.82,0
1365,-1.5,8.03,6.45,11.51,-21.83,-51.79,0
1389,-1.64,8,6.38,32.12,-29.58,-50.21,0
1414,-1.74,7.96,6.22,51.27,-2.87,-45.57,0
1438,-1.72,7.87,6.03,64.8,14.02,-28.32,0
1463,-1.57,8.02,5.78,57.85,-0.25,-9.42,0
1488,-1.53,7.95,5.65,47.97,-13.3,3.88,0
1513,-1.56,7.89,5.71,35.11,-13.85,23.21,0
1538,-1.57,7.74,5.88,25.29,-17.69,43.88,0
1562,-1.34,7.79,5.68,20.29,-19.58,63.14,0
1587,-1.17,7.84,5.79,-0.5,-23.17,76.99,0
1611,-1.11,7.69,5.99,-14.22,-46.04,81.5,0
1637,-0.83,7.68,6.01,-7.45,-74.82,74.91,0
1662,-0.72,7.77,5.9,5.23,-58.91,50.28,0
1686,-0.66,7.84,5.73,3.65,-29.52,15.03,0
1711,-0.8,7.83,6,0.41,-22.32,-14.66,0
1735,-0.98,7.84,6.1,1.51,-35.49,-30.39,0
1760,-1.09,7.81,6.12,13.22,-28.66,-36.37,0
1785,-1.28,7.85,6.02,22.49,-20.92,-36.25,0
1810,-1.43,7.86,6.06,25.23,-14.88,-29.05,0
1835,-1.56,7.76,5.91,27.79,-36.59,-10.45,0
1859,-1.43,7.77,5.91,22.85,-42.75,9.61,0
1884,-1.32,7.82,6.08,18.34,-31.35,20.03,0
1908,-1.38,7.89,6.06,19.62,-29.27,17.6,0
1934,-1.24,7.84,6.11,13.77,-39.82,15.52,0
1959,-1.27,7.91,6.1,19.8,-29.76,10.71,0
1983,-1.32,7.88,5.96,21.02,-21.59,6.44,0
2008,-1.37,7.91,5.86,24.07,-14.52,6.32,0
2032,-1.27,7.98,5.86,26.45,-27.02,11.32,0
2058,-1.22,8.07,5.85,25.84,-22.81,11.99,0
2083,-1.31,8,5.51,23.04,-17.08,10.89,0
2107,-1.36,8.05,5.71,19.32,-2.63,11.62,0
2132,-1.32,8.05,5.82,16.94,-7.5,22.35,0
2156,-1.22,7.92,5.94,16.51,-26.04,39.12,0
2181,-1.16,8.06,5.86,22.67,-31.04,42.41,0
2206,-1.04,8.04,5.89,23.71,-30,36.19,0
2231,-0.95,8.04,5.82,18.58,-25.92,28.82,0
2256,-0.84,7.99,6.04,15.78,-34.7,19,0
2280,-0.94,8.02,6.12,28.71,-28.42,9.97,0
2305,-0.86,8.21,6.09,31.08,-35.43,-0.76,0
2329,-0.93,8.26,6.3,31.39,-41.59,-6.67,0
2355,-1.1,8.18,6.32,50.66,-55.37,-4.78,0
2379,-1.23,8.15,6.21,81.94,-45.31,9.61,0
2404,-1.17,8.17,6.08,106.33,-57.02,26.32,0
2429,-0.89,8.15,5.65,108.28,-59.03,30.52,0
2453,-0.94,8.15,5.63,99.13,-55.86,25.46,0
2479,-0.99,8.15,5.55,88.16,-69.88,25.83,0
2503,-1.06,8.08,5.57,83.89,-72.5,31.5,0
2528,-0.89,8.09,5.48,79.26,-78.11,29.49,0
2553,-0.79,8.21,5.44,71.76,-69.82,24.61,0
2577,-0.78,8.23,5.47,55.78,-74.03,9.79,0
2602,-0.91,8.19,5.71,51.88,-83.97,0.4,0
2627,-0.93,8.18,5.65,74.13,-75.19,-9.11,0
2652,-0.88,8.31,5.64,84.74,-34.52,-20.09,0
2676,-1.16,8.25,5.67,104.44,-18.85,-21.31,0
2701,-1.18,8.3,5.41,121.02,-51.77,-6.98,0
2726,-1.08,8.36,5.42,118.95,-47.5,7.96,0
2751,-0.91,8.39,5.47,119.56,-29.33,22.17,0
2776,-0.85,8.43,5.33,109.19,-41.22,28.94,0
2800,-0.72,8.52,5.22,91.39,-64.39,26.68,0
2825,-0.55,8.61,5.33,70.17,-34.94,11.74,0
2851,-0.72,8.65,5.54,78.77,-32.69,8.08,0
2875,-0.96,8.57,5.84,123.34,-62.99,14.97,0
2900,-0.89,8.57,5.69,185.66,-88.48,21.56,0
2924,-0.6,8.55,5.26,240.96,-53.17,12.11,0
2949,-0.45,8.52,4.91,279.74,-2.99,-12.22,0
2974,-0.55,8.29,4.42,312.67,20.54,-28.87,0
2999,-0.52,8.01,3.8,327.18,-11.83,-37.16,0
3024,-0.77,7.61,3.21,335.72,-131.65,-43.62,0
3048,-0.48,7.36,2.35,341.39,31.76,-47.95,0
3074,-0.78,7.09,1.01,311.45,24.93,-57.83,0
3098,-0.63,6.8,-0.56,187.61,-6.77,-74.17,0
3123,-0.35,6.7,-2.06,-18.37,9.75,-93.26,0
3147,-1.15,5.64,-3.05,-313.3,-169.03,-102.28,0
3173,-1.78,6.49,-2.99,-676.29,-260.55,-69.6,0
3198,-2.15,6.08,-1.64,-1018.17,-182.87,7.72,0
3222,-1.86,5.69,-1.04,-1280.3,-262.38,98.27,0
3248,-0.86,4.58,-2.11,-1647.37,-530.12,165.28,0
3272,-0.71,2.67,-2.02,-1999.14,-800.97,198.87,0
3297,-2.05,0.07,0.74,-1999.14,-754.08,291.92,0
3323,-3,-2.75,5.61,-1999.14,-397.44,515.82,0
3347,-4.57,-4.52,10.32,-1999.14,-167.2,800.45,0
3373,-1.33,-4.68,14.42,-1999.14,-202.56,1055.82,0
3397,0.76,-4.26,15.32,-1999.14,-544.21,1128.5,0
3423,5.52,-4.16,19.36,-1762.8,-492.99,940.88,0
3448,4.25,-4.04,19.98,-1097.68,310.79,685.94,0
3473,5.83,-3.61,19.98,-533.54,423.71,397.1,0
3498,6.18,-3.39,19.21,-158.24,302.98,109.18,0
3522,5.2,-3.52,18.35,50.29,318.77,-82.83,0
3548,3.35,-3.41,17.91,202.73,78.96,-143.87,0
3572,3.19,-2.32,18,394.07,-77.93,-179.84,0
3597,2.12,-1.45,18.07,666.2,-50.43,-233.56,0
3623,1.62,-1.37,17.73,972.72,-79.27,-270.76,0
3647,1.04,-1.21,17.21,1271.93,124.81,-306.91,0
3672,1.74,-1.06,15.47,1517.66,136.64,-341,0
3697,0.37,-0.98,13.86,1662.96,40.36,-366.3,0
3722,0.15,-0.51,13.19,1812.96,396.46,-369.41,0
3748,0.3,0.22,12.25,1927.59,645.72,-326.55,0
3772,-0.26,1.02,9.93,1974.36,319.26,-251.06,0
3798,-0.45,1.79,8.21,1927.83,164.45,-220.21,0
3822,-0.79,2.8,6.89,1840.58,419.87,-219.17,0
3847,-2.38,3.69,7.12,1756.92,555.72,-156.85,0
3872,-2.5,4.2,6.04,1712.84,322.8,19.55,0
3897,-2.39,4.75,4.34,1597.9,90.73,111.25,0
3922,-1.51,5.39,3.11,1510.52,62.19,108.63,0
3947,-1.41,5.77,1.58,1376.74,232.55,90.22,0
3972,-1.49,6.19,0.96,1206.13,241.88,131.07,0
3996,-1.6,6.51,0.74,1022.05,-28.17,164.18,0
4022,-1.2,6.77,0.98,926.93,-83.66,175.58,0
4047,-1.28,6.89,0.59,887.66,55.73,149.97,0
4071,-1.09,6.96,0.19,859.55,107.49,133.57,0
4097,-0.53,7.02,0.02,854.06,70.06,137.47,0
4121,-0.62,7.36,-1.65,780.83,-7.57,133.51,0
4146,0.31,7.51,-3.06,657.66,-40.61,92.41,0
4170,0.38,7.3,-3.97,516.02,-63.97,22.9,0
4196,0.56,7.04,-4.88,344.5,7.56,-50.03,0
4221,0.22,7.61,-4.97,120.9,-26.89,-108.99,0
4245,-0.79,8.31,-4.56,-98,-102.44,-120.88,0
4270,-0.92,8.63,-3.77,-266.47,-46.22,-90.21,0
4295,-1.75,8.54,-3.17,-404.7,44.51,-58.07,0
4320,-2.31,7.9,-2.69,-483.06,-1.59,15.95,0
4345,-1.99,7.73,-2.35,-545.43,-2.2,110.7,0
4369,-1.25,7.6,-3.41,-682.38,-16.28,177.17,0
4395,-0.32,7.27,-3.77,-879.33,62.43,180.28,0
4419,0.72,7.39,-3.61,-1154.45,91.52,120.58,0
4444,1.84,6.57,-3.46,-1445.79,56.34,6.13,0
4469,0.68,6.2,-2.53,-1854.57,-176.53,-114.96,0
4494,0.05,4.17,-0.68,-1999.14,-361.53,-103.81,0
4519,-0.53,1.48,-0.49,-1999.14,-477.38,-40.57,0
4544,-0.89,-2.03,0.12,-1999.14,-459.51,-1.43,0
4569,-1.83,-5.97,3.48,-1999.14,-268.36,50.64,0
4593,-3.47,-10.05,8.65,-1999.14,-376.04,281.19,0
4619,-3.52,-11.19,15.55,-1999.14,-626.83,595.39,0
4644,-0.3,-9.62,19.98,-1999.14,-717.19,889.23,0
4669,3.22,-6.49,19.98,-1999.14,-632.38,860.58,0
4694,5.19,-4.59,19.98,-1412.5,49.2,572.65,0
4719,5.02,-4.9,19.98,-504.09,471.7,225.34,0
4744,4.87,-5.25,19.98,101.82,802.24,-45.09,0
4768,3.75,-5.35,19.98,465.84,408.28,-198.32,0
4794,3.24,-4.22,18.76,679.8,124.02,-260.76,0
4819,1.64,-3.2,17.41,889.25,-139.33,-301.55,0
4844,1.2,-2.41,16.6,1132.17,-7.2,-353.92,0
4869,0.61,-2.08,16.44,1402.47,433.59,-354.35,0
4893,-0.07,-1.99,15.53,1653.2,289.87,-329.29,0
4919,0.24,-1.58,14.84,1820.4,160.3,-336.18,0
4944,-0.81,-1.11,13.84,1996.86,394.81,-285.75,0
4969,-1.52,-0.82,11.71,1996.86,251.15,-201.85,0
4994,-1.16,-0.2,10.17,1996.86,195.42,-147.04,0
5019,-1.42,0.83,8.82,1996.86,236.7,-81.43,0
5044,-2.07,1.96,7.97,1983.26,154.57,-28.81,0
5069,-2,2.62,7.14,1976.86,170.3,46.07,0
5094,-2.01,3.13,5.04,1923.14,82.07,99.42,0
5119,-1.54,3.92,4.24,1800.64,61.21,124.42,0
5143,-2.27,4.24,3.87,1717.71,111.28,185.58,0
5169,-1.56,4.84,2.86,1651.19,7.74,240.4,0
5193,-1.1,5.41,1.16,1578.2,-167.99,244.12,0
5218,-0.77,6.21,0.31,1446.38,-176.1,209.79,0
5244,0.12,6.53,-0.67,1337.47,-62.81,152.53,0
5268,0.16,7.01,-1.69,1198.15,60.42,75.52,0
5293,0.27,6.88,-2.6,1064.85,88.9,3.08,0
5318,0.07,6.84,-3.44,894.55,-69.94,-39.17,0
5343,0.1,7.07,-4.25,710.77,-55.06,-76.49,0
5368,-0.45,7.42,-5.12,504.25,-111.71,-102.1,0
5392,-0.87,7.38,-5.19,299.86,-130.98,-103.81,0
5418,-1.17,7.11,-5.17,136.94,-96.41,-84.35,0
5442,-1.55,7.47,-5.36,-41.84,-100.74,-62.95,0
5467,-1.71,7.71,-5.45,-230.13,-73.91,-36.12,0
5492,-2.08,7.91,-4.99,-437.2,-65.37,1.44,0
5517,-2.23,7.59,-4.44,-607.75,-12.63,55.77,0
5542,-2.37,7.52,-4.3,-771.22,-51.71,127.23,0
5566,-1.44,7.54,-4.86,-975.92,-123.3,196.68,0
5592,0.11,7.21,-5.06,-1254.51,-114.64,194.85,0
5616,0.58,6.48,-3.96,-1601.22,-197.38,98.02,0
5642,-0.84,5.1,-2.38,-1929.44,-375.06,73.08,0
5667,-1.85,4.17,-0.33,-1999.14,-454.27,167.23,0
5691,-1.07,3.1,-0.06,-1999.14,-222.75,249.24,0
5717,-0.7,0.92,0.55,-1999.14,-191.47,274.79,0
5741,-0.89,-2.18,2.43,-1999.14,-334.57,371.49,0
5766,-1.35,-5.36,5.13,-1999.14,-683.41,511.74,0
5791,-2.1,-8.25,9.86,-1999.14,-523.17,701.98,0
5816,-0.16,-8.85,18.66,-1999.14,439.32,848.62,0
5842,2.92,-5.09,19.98,-1999.14,402.49,720.21,0
5866,4.28,-3.06,19.98,-1629.02,130.67,478.38,0
5892,1.9,-3.12,19.98,-613.24,-776.83,339.54,0
5916,4.8,-3.11,19.98,190.29,615.6,118.81,0
5941,3.56,-2.87,19.98,620.71,1337.24,-58.62,0
5967,3.44,-2.23,18.4,846.5,263.71,-140.15,0
5991,2.71,-1.47,15.75,956.14,-116.83,-228.74,0
6017,1.41,-0.63,14.01,1003.09,128.35,-291.73,0
6041,0.75,-0.22,14.78,1100.28,259.81,-293.19,0
6067,0.24,0.47,15.76,1321.68,198.35,-256.85,0
6091,-0.12,0.69,14.49,1540.64,3.47,-241.3,0
6116,0.33,0.71,13.55,1666.37,110.18,-284.84,0
6142,0.05,1.39,12.81,1772.1,256.58,-318.01,0
6166,-0.89,1.79,11.64,1863.38,-4.88,-268.5,0
6191,-1.65,2.11,10.34,1890.33,-167.38,-217.95,0
6216,-1.33,2.65,9.05,1942.1,9.63,-172.95,0
6241,-1.35,3.49,6.64,1891.98,30.36,-137.59,0
6267,-1.67,4.43,5.13,1765.82,-96.95,-106.67,0
6291,-2.24,5.07,3.83,1624.54,-128.17,-69.29,0
6316,-2.5,5.66,3.23,1484.73,8.59,-33.07,0
6341,-2.5,6.08,2.84,1422.17,72.62,22.47,0
6366,-2.74,6.87,2.87,1346.32,98.41,67.23,0
6391,-1.94,6.72,3.08,1365.03,76.64,129.3,0
6415,-1.8,6.17,1.44,1405.95,-51.28,162.47,0
6441,-1.35,6.34,-0.46,1375.22,-112.32,148.39,0
6465,-0.77,6.49,-1.76,1270.95,109.75,113.75,0
6491,-0.78,6.74,-2.51,1154.37,254.26,93.63,0
6515,-0.79,6.78,-2.97,1043.27,303.41,91.99,0
6540,-0.16,7.22,-2.97,944.8,341.82,98.08,0
6566,0.15,6.97,-4,856.38,188.59,91.44,0
6590,0.11,7.15,-5.04,688.46,114.08,73.14,0
6615,0.27,7.1,-5.63,534.62,148.84,57.72,0
6639,0.15,6.19,-6.05,353.22,68.29,25.58,0
6665,0.69,7.15,-6.93,149.68,-35.55,-6.43,0
6690,0.95,5.98,-7.76,-89.71,-98.66,-50.21,0
6714,0.19,6.76,-8.01,-365.13,-216.47,-92.22,0
6739,-1.32,6.55,-7.47,-622.08,-110.31,-93.13,0
6764,-1.5,6.62,-7.04,-875.74,-131.41,-32.22,0
6789,-0.6,6.14,-7.09,-1148.72,-293.48,37.72,0
6813,-0.98,5.27,-6.08,-1433.9,-329.09,38.45,0
6839,-0.94,4.85,-4.81,-1654.14,-223.23,33.33,0
6864,0,4.61,-4.83,-1924.26,-188.6,32.29,0
6888,0,3.71,-4.5,-1999.14,-200.25,-48.75,0
6914,-0.15,1.74,-2.86,-1999.14,-28.72,-155.88,0
6938,-0.45,-1.12,-1.12,-1999.14,-24.58,-207.46,0
6963,-3.05,-4.13,1.77,-1999.14,-580.18,-130.02,0
6989,-5.1,-8.26,6.22,-1999.14,-978.1,264.97,0
7013,-3.5,-10.15,11.04,-1999.14,-824.02,725.94,0
7039,-0.32,-10.88,15.24,-1999.14,-504.02,921.85,0
7063,2.66,-8.84,19.98,-1999.14,-130.25,953.5,0
7089,3.9,-6.11,19.98,-1999.14,-533.84,779.48,0
7113,6.1,-5.49,19.98,-1013.05,224.51,513.08,0
7139,6.03,-5.12,19.98,-28.91,225.54,170.58,0
7164,5.77,-5.04,19.98,578.46,653.22,-123.38,0
7188,4.3,-3.86,19.98,882.66,598.28,-271.43,0
7214,1.68,-2.57,17.97,1111.74,-74.39,-313.8,0
7238,1.05,-2.08,16.5,1274.12,-30.67,-349.41,0
7264,0.7,-1.32,15.92,1438.45,384.08,-335.08,0
7289,-0.28,-0.75,15.19,1633.08,268.1,-279.23,0
7313,0.05,-0.27,14.05,1786.8,50.54,-258.26,0
7339,-0.3,0,13.17,1899.91,29.2,-266.91,0
7363,-0.26,0.53,12.41,1996.86,172.43,-291.85,0
7389,-1.33,0.73,11.01,1996.86,221.64,-258.99,0
7413,-1.53,0.98,9.28,1996.86,103.41,-194.78,0
7438,-1.62,1.73,7.46,1996.86,118.77,-162.34,0
7464,-0.95,2.68,5.86,1996.86,94.51,-160.76,0
7488,-1.74,3.15,3.86,1976.19,11.82,-138.07,0
7514,-1.92,3.84,2.8,1792.1,-61.95,-85.45,0
7538,-2.02,4.51,2.71,1665.28,90.79,-33.93,0
7563,-2.09,5.04,1.66,1569.85,152.31,23.33,0
7588,-1.69,5.16,0.92,1494.48,102.98,68.27,0
7613,-1.65,5.32,0.1,1417.53,82.86,107.96,0
7638,-1.49,5.95,-0.8,1331.38,-23.54,139.18,0
7662,-1.76,5.8,-0.59,1264.85,-16.59,148.57,0
7688,-2.09,5.57,-1.22,1301.99,25.97,191.56,0
7712,-1.64,6.02,-3.01,1315.58,62.62,223.33,0
7737,0.31,6.77,-5.03,1196.93,208.77,193.08,0
7763,1.06,8.58,-6.96,984.49,126.46,111.19,0
7787,1.04,7.62,-8.46,681.02,-122.26,14.85,0
7812,1.15,7.48,-8.7,333.34,-106.1,-101.92,0
7837,0.45,7.28,-8.12,65.84,3.17,-186.37,0
7862,-0.29,6.77,-7.74,-160.13,-64.58,-198.62,0
7887,-0.49,6.02,-7.47,-378.06,-279.03,-177.59,0
7912,-1.16,5.7,-7.61,-587.81,-351.65,-149.05,0
7937,-1.58,5.15,-7.31,-815.43,-269.45,-116.55,0
7961,-2.71,5.11,-6.49,-1045.49,-288.9,-50.51,0
7987,-2.65,5.36,-5.89,-1264.57,-398.9,49.97,0
8011,-0.79,5.05,-6.43,-1524.69,-423.11,123.75,0
8037,0.73,4.7,-7.24,-1930.72,-436.16,88.75,0
8062,0.81,3.54,-6.11,-1999.14,-489.33,-43.62,0
8086,0.2,0.66,-4.8,-1999.14,-351.65,-116.24,0
8112,-3.38,-2.66,-0.77,-1999.14,-165.31,-133.26,0
8136,-4.78,-7.17,4.01,-1999.14,18.04,36.25,0
8161,-4.34,-10.37,9.79,-1999.14,-105.25,325.95,0
8187,-4.87,-10.79,17.66,-1999.14,-361.28,738.2,0
8211,-2.51,-7.74,19.98,-1999.14,-623.72,1050.88,0
8237,0.28,-3.96,19.98,-1999.14,-544.69,989.6,0
8261,6.4,-1.14,19.98,-795.8,235.05,579.24,0
8287,5.54,-1.77,19.98,273.77,769.74,153.14,0
8312,4.78,-1.85,19.98,813.27,394.5,-182.83,0
8336,2.82,-1.04,19.58,1027.17,215.24,-379.35,0
8362,0.23,-0.03,17,1130.1,39.93,-400.33,0
8386,-2.56,0.48,16.8,1278.27,-238.05,-287.89,0
8412,-2.15,0.85,15.72,1512.9,-70.67,-205.45,0
8436,-1.66,1.42,13.57,1647.35,-28.85,-167.34,0
8462,-2.23,1.74,12.64,1723.32,-78.48,-124.66,0
8487,-2.75,1.53,12.16,1837.71,-88.91,-35.03,0
8511,-2.62,1.49,10.55,1961.68,-69.33,38.75,0
8537,-2.33,1.55,8.22,1996.86,-82.32,109.18,0
8561,-1.3,2.31,6.31,1959.36,2.13,139.24,0
8586,-0.71,3.2,6.03,1909.05,93.04,142.66,0
8612,-1.13,3.4,4.68,1910.58,27.74,127.47,0
8636,-1.24,4.05,3.04,1868.81,62.86,83.57,0
8661,-0.72,4.89,1.93,1796.49,95.06,61.68,0
8686,-0.63,5.04,0.59,1703.02,33.9,57.72,0
8711,-0.94,5.67,-0.74,1568.14,72.07,29.3,0
8735,-0.68,5.95,-1.55,1441.25,142.19,22.96,0
8760,-0.56,6.5,-2.32,1282.54,118.65,33.39,0
8786,-1.01,6.52,-3.32,1134.18,-20.37,65.89,0
8810,-0.76,6.86,-4.15,979.25,-28.85,77.05,0
8835,-0.24,7.27,-5.27,825.1,-27.08,66.5,0
8860,-0.41,7.65,-6.34,611.44,-27.02,37.66,0
8885,-0.19,7.78,-6.54,380.29,-25.25,27.17,0
8910,-0.66,7.6,-6.55,180.35,-30.8,16.38,0
8934,-0.77,7.68,-6.42,4.26,-19.7,15.89,0
8959,-0.87,7.72,-6.02,-170.93,-13.05,14.85,0
8984,-0.83,8,-5.59,-316.41,-28.17,20.22,0
9009,-1.27,7.73,-5.14,-460.13,-3.18,22.66,0
9033,-1.26,7.11,-5.23,-575.49,14.51,53.08,0
9058,-1.09,6.31,-5.72,-734.4,10.79,82.84,0
9084,-0.25,6.02,-6.22,-936.71,66.95,71.01,0
9108,0.61,5.74,-6.95,-1240.61,4.51,10.16,0
9133,1.17,4.74,-7.15,-1628.96,-91.53,-82.1,0
9157,0.59,3.12,-6.75,-1999.14,-329.88,-149.78,0
9183,-0.54,1.24,-6.58,-1999.14,-505.85,-140.45,0
9208,-1.98,-2.07,-4.64,-1999.14,-350.67,-108.62,0
9233,-3.06,-6.1,-0.97,-1999.14,-48.05,-15.82,0
9258,-3.4,-10.47,3.44,-1999.14,-164.94,127.72,0
9282,-4.14,-14.79,9.12,-1999.14,-379.39,369.79,0
9308,0.1,-15.73,19.98,-1999.14,-447.2,627.53,0
9332,0,-8.72,19.98,-1999.14,-1606.76,934.29,0
9358,2.16,-6.61,19.98,-1942.31,-697.01,969.48,0
9383,7.94,-4.88,19.98,-556.35,544.69,606.13,0
9408,6.93,-5.72,19.98,225.66,1005.11,250.22,0
9433,5.61,-4.38,19.98,557.79,-31.1,48.51,0
9458,5.03,-2.71,18.46,725.83,-261.34,-162.16,0
9483,3.38,-1.39,16.42,905.71,88.65,-325.14,0
9508,1.35,-1.17,15.6,1088.09,70.24,-387.03,0
9533,0.68,-0.79,15.56,1248.21,33.11,-390.75,0
9558,0.32,-0.79,14.99,1427.41,54.93,-403.56,0
9582,-0.28,-0.41,14.78,1593.33,77.56,-396.12,0
9608,-0.71,-0.34,14.33,1805.76,180.54,-340.02,0
9632,-0.67,-0.23,13.06,1980.94,185.54,-307.28,0
9658,-0.63,0.08,10.92,1996.86,120.06,-294.6,0
9683,-0.78,0.49,9.56,1996.86,187.31,-271.67,0
9708,-1.37,1.17,7.94,1996.86,159.08,-234.35,0
9733,-1.44,1.88,6.35,1996.86,98.04,-188.26,0
9757,-2.12,2.82,5.12,1996.86,192.86,-153.93,0
9783,-0.82,3.56,4.22,1949.11,239.75,-113.07,0
9808,-1.26,4.23,2.52,1854.66,114.81,-81.43,0
9832,-1.53,4.62,1.12,1755.34,51.4,-75.64,0
9858,-1.06,5.56,0.65,1626.19,204.57,-73.38,0
9882,-1.17,6.07,-0.01,1514,162.56,-60.09,0
9907,-1.56,6.32,-0.72,1417.29,86.28,-47.65,0
9933,-1.54,6.31,-1.73,1348.51,82.92,-22.71,0
9957,-0.93,6.67,-3.06,1245.22,107.31,-22.95,0
9982,-0.91,6.97,-4.09,1068.15,76.95,-46.18,0
10007,-1.15,7.69,-5.04,910.95,74.93,-52.59,0
10032,-1.59,7.58,-5.74,746.63,127.8,-58.26,0
10056,-1.62,7.5,-6.23,571.57,159.38,-51,0
10082,-1.74,7.27,-6.66,374.25,131.7,-16.55,0
10107,-1.61,7.04,-6.92,186.14,55.18,33.27,0
10131,-1.41,6.22,-7.17,-15.38,-68.42,55.95,0
10157,-1.26,7.21,-7.44,-242.69,-48.72,57.6,0
10181,-0.96,6.87,-7.36,-469.89,-49.64,47.84,0
10206,-1.27,6.61,-7.05,-713.42,-66.16,27.05,0
10231,-1.42,6.4,-6.56,-962.56,-85.43,16.32,0
10256,-1.33,6.31,-5.98,-1236.65,-217.01,42.84,0
10281,-0.49,5.98,-5.8,-1509.14,-326.71,66.8,0
10306,-0.18,5.24,-5.73,-1859.38,-464.02,49.24,0
10331,0.12,4.14,-4.98,-1999.14,-416.95,-37.4,0
10355,-0.39,2.13,-3.55,-1999.14,-389.51,-92.34,0
10381,-0.86,-0.25,-1.23,-1999.14,-564.69,-74.96,0
10406,-2.09,-3.41,1.69,-1999.14,-763.72,27.11,0
10431,-2.98,-6.23,5,-1999.14,-947.98,290.7,0
10456,-3.52,-9.02,8.48,-1999.14,-900.12,649.72,0
10481,-1.48,-10.87,12.25,-1999.14,-307.75,825.82,0
10506,2.02,-10.41,19.35,-1999.14,148.84,828.87,0
10532,1.53,-7.68,19.98,-1999.14,-406.34,828.26,0
10556,4.68,-5.52,19.98,-1528.84,-86.47,632.65,0
10582,6.06,-4.52,19.98,-485.98,191.58,333.99,0
10606,5.12,-4.39,19.98,299.92,369.63,42.05,0
10631,4.59,-3.6,19.98,814.37,539.44,-171.91,0
10656,2.97,-2.58,18.23,1107.9,346.82,-321.49,0
10681,1.62,-1.89,16.57,1283.63,210.97,-373.32,0
10707,0.15,-2.04,16.06,1465.89,238.59,-352.71,0
10731,-0.32,-1.34,15.1,1656.8,278.59,-305.33,0
10757,-0.55,-0.84,14.32,1795.52,209.69,-264.23,0
10781,-1.67,-0.6,13.69,1921.8,199.02,-226.24,0
10807,-1.77,-0.38,13.22,1996.86,287.74,-158.74,0
10832,-2.37,-0.12,11.2,1996.86,173.65,-72.53,0
10857,-2.39,0.34,8.86,1996.86,112.92,-21.86,0
10882,-1.87,1.29,7.8,1996.86,248.1,5.77,0
10906,-2.4,1.97,6.05,1996.86,164.32,70.03,0
10932,-2.68,2.56,4.73,1996.86,180.91,155.28,0
10957,-2.77,3.18,4.09,1996.86,277.07,200.89,0
10982,-1.47,4.08,2.73,1996.86,153.23,236.37,0
11007,-1.02,4.87,0.77,1914.36,162.25,240.03,0
11032,-0.59,5.54,-0.87,1757.96,-64.58,203.39,0
11057,-0.7,5.84,-1.93,1592.84,-12.87,141.25,0
11081,-0.9,6.14,-3.02,1416.44,69.51,116.13,0
11107,-0.78,6.41,-4.09,1228.21,53.1,121.98,0
11132,-0.79,6.82,-4.77,1019.86,4.39,123.63,0
11156,-0.83,7.04,-4.97,851.02,38.78,108.94,0
11182,-1.18,7.18,-5.53,703.94,129.99,105.46,0
11206,-1.03,7.58,-5.89,536.57,144.08,126.92,0
11232,-0.96,7.59,-6.54,368.34,157.13,158.45,0
11257,-0.81,7.81,-6.98,166.02,46.89,191.8,0
11281,-0.08,7.78,-7.42,-53.06,32.74,184.73,0
11307,0.05,7.73,-7.38,-286.47,-24.39,155.22,0
11331,0.31,7.37,-7.03,-502.2,-49.58,119.61,0
11356,0.47,6.96,-6.56,-696.53,-20.55,79.49,0
11380,1.04,6.63,-6.26,-892.26,19.14,19.79,0
11406,1.25,6.24,-6.21,-1126.53,-1.83,-70.7,0
11431,1.35,5.84,-6.2,-1392.44,-62.99,-167.34,0
11455,1.78,5.39,-5.97,-1745.06,-165.25,-282.46,0
11481,1.35,4.28,-5.09,-1999.14,-288.29,-397.22,0
11505,-0.54,1.98,-3.33,-1999.14,-210.79,-479.35,0
11531,-1.28,-0.11,-1.74,-1999.14,-301.4,-434.29,0
11556,-2.17,-2.49,0.23,-1999.14,-594.94,-312.4,0
11581,-2.96,-6.56,2.36,-1999.14,-751.77,-116,0
11606,-2.96,-10.71,5.85,-1999.14,-1058.1,254.42,0
11631,-2.18,-14.08,10.03,-1999.14,-1783.71,797.71,0
11656,-2.17,-16.9,14.49,-1999.14,-1994.01,1487.4,0
11682,5.85,-16.59,19.98,-1999.14,-571.1,1718.43,0
11707,11.9,-9.28,19.98,-1999.14,-667.62,1376.61,0
11732,10.11,-7.07,19.98,-1050.37,-352.74,828.81,0
11757,12.53,-6.06,19.98,100.96,-172.69,156.37,0
11782,9.74,-6.08,19.98,886.2,1085.17,-413.62,0
11807,5.92,-5.8,19.21,1339.18,1400.59,-608.8,0
11832,2.7,-5.1,16.26,1569.24,502.92,-582.83,0
11858,2.04,-4.33,15.41,1687.41,578.22,-535.63,0
11882,1.17,-3.51,14.41,1797.47,665.29,-459.53,0
11908,0.34,-2.87,13.6,1883.69,476.09,-373.86,0
11932,0.03,-2.3,12.9,1950.15,412.74,-309.05,0
11958,-0.31,-1.51,12.57,1996.86,306.21,-280.21,0
11983,-0.6,-1.07,12.04,1996.86,444.56,-235.45,0
12008,-2,-0.85,10.38,1996.86,369.57,-167.28,0
12033,-1.86,0.02,8.96,1996.86,314.69,-97.28,0
12057,-2.47,0.83,7.55,1996.86,323.16,-8.62,0
12083,-2.28,1.78,6.76,1996.86,384.02,72.84,0
12107,-2.74,2.54,4.82,1996.86,261.7,184.36,0
12133,-2.83,2.78,3.57,1996.86,231.52,294.48,0
12158,-1.45,4.31,3.76,1945.03,375.6,365.15,0
12183,-1.61,5.43,2.59,1855.27,32.74,423.45,0
12208,-1.53,5.48,1.06,1762.65,-218.54,469.85,0
12232,-0.64,5.85,-0.35,1665.15,-236.95,459.79,0
12258,0.36,6.9,-1.7,1545.34,-145.37,402.65,0
12283,0.93,6.54,-2.86,1393.51,-48.24,337.35,0
12308,1.32,6.98,-3.85,1236.19,-39.52,265.22,0
12333,1.51,6.8,-4.55,1090.04,43.17,170.89,0
12357,1.68,6.84,-5.43,950.47,112.25,93.45,0
12383,1.75,6.85,-6.26,779.55,67.37,20.58,0
12408,2.06,6.74,-7.36,555.23,-15.49,-52.04,0
12432,1.83,6.63,-8.08,295.59,-80.61,-157.71,0
12458,1.13,6.87,-8.02,9.56,-9.58,-254.11,0
12482,0.3,7,-7.52,-251.78,21.46,-290.57,0
12507,-0.87,6.93,-7.77,-492.93,-95.92,-275.33,0
12532,-1.25,6.17,-7.9,-789.09,-176.71,-190.45,0
12557,-0.87,6.25,-7.49,-1069.39,-117.38,-127.89,0
12582,-0.34,6.17,-7.04,-1395.85,-205.19,-123.81,0
12607,-0.55,5.75,-6.52,-1736.46,-352.2,-128.26,0
12632,-0.63,4.65,-5.2,-1999.14,-276.71,-168.74,0
12657,-0.02,3.71,-4.15,-1999.14,-211.59,-190.21,0
12682,-0.48,2.24,-3.04,-1999.14,-304.15,-214.35,0
12708,-1.29,-0.68,-1.2,-1999.14,-372.2,-210.39,0
12732,-2.15,-4.11,1.73,-1999.14,-508.17,-103.13,0
12758,-2.74,-7.7,4.85,-1999.14,-854.75,171.98,0
12782,-3.04,-11.68,8.39,-1999.14,-1525.72,704.97,0
12808,-3.03,-14.88,13.23,-1999.14,-1562,1324.29,0
12832,3.49,-14.09,19.62,-1999.14,-1360.23,1724.9,0
12858,8.08,-11.37,19.98,-1999.14,-1334.2,1843.86,0
12884,11.68,-8.13,19.98,-1813.77,-989.02,1464.65,0
12908,14.58,-7.19,19.98,-699.33,-355.79,754.17,0
12934,13.32,-6.6,19.98,198.22,318.22,-9.78,0
12958,9.83,-7.31,19.09,825.95,767.55,-516,0
12983,6.91,-6.65,17.02,1236.93,771.82,-716.48,0
13009,4.65,-5.35,15.36,1461.13,679.2,-769.04,0
13033,3.29,-4.33,14.44,1613.08,616.21,-750.63,0
13059,1.79,-3.79,14.14,1751.07,571.09,-698.01,0
13083,0.59,-3.27,13.58,1902.35,560.6,-607.15,0
13109,0.73,-2.34,13.42,1996.86,769.26,-493.74,0
13134,0.33,-1.71,12.5,1996.86,655.17,-411.42,0
13159,-0.33,-1.66,11.78,1996.86,629.93,-360.63,0
13184,-0.48,-1.43,11.21,1996.86,785.23,-318.8,0
13209,-1.16,-0.89,10.26,1996.86,927.67,-200.94,0
13234,-1.58,-0.3,7.35,1996.86,600.17,-63.99,0
13259,-1.78,0.84,4.59,1996.86,458.77,22.05,0
13284,-1.45,1.84,3.27,1996.86,407.43,85.03,0
13309,-1.1,2.86,2.11,1996.86,331.82,147.96,0
13334,-1.64,4.03,0.89,1996.86,229.99,197.47,0
13359,-1.43,4.72,0.09,1913.87,90.6,245.28,0
13384,-1.27,5.14,-1,1787.9,-27.5,271.25,0
13409,-1.55,5.58,-1.99,1655.76,-48.24,280.58,0
13434,-0.88,6.43,-2.48,1519.24,-11.59,276.25,0
13459,-0.3,7.24,-3.01,1391.19,39.51,268.87,0
13484,-0.26,7.24,-5.03,1251.68,-81.04,258.45,0
13509,0.22,7.12,-6.71,1058.21,-200.37,248.26,0
13534,1.07,6.08,-8.11,834.8,-211.89,171.19,0
13559,1.76,7.11,-8.95,571.08,-189.03,67.72,0
13584,1.08,6.56,-9.43,312.3,-190.8,-46.85,0
13609,0.39,6.38,-9.48,38.28,-136.34,-157.1,0
13634,-0.43,6.63,-9.44,-241.11,-151.95,-185.02,0
13659,-1.58,7.12,-8.79,-524.03,-174.94,-196.61,0
13683,-2.39,6.8,-7.82,-760.25,-132.87,-153.68,0
13709,-2.73,6.24,-7.09,-943.05,-137.99,-59.05,0
13734,-1.65,5.98,-7.43,-1151.1,-169.82,27.23,0
13759,-0.27,5.79,-8.08,-1467.44,-231.53,22.11,0
13784,-0.01,5.2,-7.41,-1879.26,-344.57,-77.46,0
13808,-0.79,3.6,-5.37,-1999.14,-396.34,-120.33,0
13834,-2.04,2.72,-3.41,-1999.14,-390,-75.7,0
13859,-2.64,1.07,-1.53,-1999.14,-210.86,-32.1,0
13884,-1.96,-0.8,0.35,-1999.14,-199.45,44.49,0
13909,-2.15,-2.47,1.89,-1999.14,-600.55,149.24,0
13933,-2.42,-6.2,4.22,-1999.14,-952.74,384.6,0
13959,-2.25,-9.6,7.91,-1999.14,-1234.5,757.34,0
13983,-1.46,-12.08,12,-1999.14,-1316.33,1176.97,0
14009,2.64,-13.72,19.96,-1999.14,-220.12,1367.03,0
14035,5.41,-11.03,19.98,-1999.14,-568.54,1269.96,0
14059,7.44,-7.56,19.98,-1877.19,-826.34,989.29,0
14085,10.5,-6.03,19.98,-766.71,-471.77,517.47,0
14109,9.77,-5.58,19.98,159.13,309.81,-27.65,0
14135,7.96,-5.06,19.98,858.21,742.73,-430.2,0
14160,5.64,-4.5,18.35,1333.15,468.1,-607.03,0
14185,3.2,-4.2,15.5,1583.26,353.35,-703.98,0
14210,1.68,-3.77,14.57,1724.54,546.7,-704.1,0
14235,0.48,-2.96,14.33,1877.47,582.73,-592.28,0
14260,-0.41,-2.43,13.52,1996.86,405.91,-459.72,0
14286,-0.12,-1.71,13.07,1996.86,317.61,-366.73,0
14310,-0.18,-0.94,12.73,1996.86,412.06,-313.68,0
14335,-1.31,-0.49,11.38,1996.86,333.89,-232.34,0
14360,-1.89,0.09,9.45,1996.86,200.54,-138.01,0
14385,-1.36,1.2,7.45,1996.86,267.8,-78.87,0
14410,-1.63,2.39,6.1,1996.86,364.69,-27.34,0
14435,-1.98,2.96,4.83,1996.86,376.15,61.07,0
14461,-1.32,3.72,3.52,1996.86,321.46,144.48,0
14485,-1.01,4.9,2.26,1972.47,146.4,179.55,0
14510,-1.12,5.17,1.32,1849.24,154.08,200.95,0
14535,-0.66,5.66,0.36,1746.98,119.08,207.72,0
14560,-0.57,6.01,-0.85,1645.7,70.67,193.87,0
14586,-0.47,6.49,-2.01,1542.59,121.03,171.86,0
14610,-0.27,6.17,-2.91,1427.78,106.76,166.31,0
14636,0.41,6.37,-4.03,1295.89,91.34,151.44,0
14660,0.68,6.8,-5.36,1130.77,-6.77,114.55,0
14685,1.01,6.91,-5.98,926.93,-57.87,47.41,0
14711,1.11,6.78,-6.94,721.08,-75.37,-26.06,0
14735,1.06,6.89,-7.54,469.68,-347.32,-88.07,0
14760,-0.46,6.93,-8.26,212.36,-410.12,-130.02,0
14785,-1.12,7.06,-8.15,-54.4,-250.49,-151.24,0
14810,-1.75,7.12,-7.49,-265.38,-128.72,-107.16,0
14834,-2.25,7.36,-6.98,-445.37,-88.42,-56.18,0
14860,-2.44,6.81,-6.88,-596.23,-29.64,14.67,0
14885,-1.34,6.51,-7.36,-787.32,-10.92,77.05,0
14909,0.67,6.11,-8.05,-1050.25,-80,70.89,0
14935,1.98,5.92,-8.23,-1411.34,-177.87,-65.57,0
14959,1.97,5.17,-7.99,-1827.92,-239.76,-251.3,0
14984,0.9,3.68,-6.71,-1999.14,-201.71,-425.08,0
15010,0.19,1.65,-5.04,-1999.14,-302.07,-507.34,0
15034,-1.24,-0.71,-3.41,-1999.14,-526.28,-498.8,0
15060,-2.28,-4.44,-1.03,-1999.14,-725.06,-405.14,0
15084,-3.56,-8.62,2.22,-1999.14,-854.57,-173.2,0
15110,-3.98,-13.38,6.93,-1999.14,-1017.31,180.46,0
15134,-4.07,-16.78,13.99,-1999.14,-1209.32,701.55,0
15160,-0.59,-17.65,19.98,-1999.14,-863.04,1076.06,0
15185,4.05,-9.91,19.98,-1999.14,-1092.55,1268.13,0
15210,5.25,-6.53,19.98,-1627.98,-1282.37,1158.01,0
15236,9.8,-5.14,19.98,-256.9,-506.83,654.48,0
15260,9.86,-4.93,19.98,767.6,796.27,15.46,0
15286,6.95,-5.2,19.98,1361.8,1005.96,-367.03,0
15311,4.05,-4.62,17.11,1594.73,409.63,-514.23,0
15336,1.43,-3.77,15.04,1664.3,227.19,-554.72,0
15361,0.12,-2.68,14.26,1748.14,339.2,-488.31,0
15386,-0.88,-2.08,13.46,1845.76,208.96,-390.94,0
15411,-1.59,-1.41,12.49,1934.91,147.56,-297.52,0
15437,-2,-0.82,11.67,1996.86,207.74,-216.49,0
15461,-1.7,0,11.19,1996.86,182.62,-122.71,0
15486,-2.52,0.28,9.77,1996.86,9.2,-15.82,0
15511,-2.19,0.95,8.05,1996.86,-27.38,44.79,0
15536,-2.37,1.89,6.5,1996.86,76.82,86.25,0
15560,-1.96,2.51,5.29,1996.86,170.18,165.89,0
15586,-2.28,3.51,4.49,1925.58,168.04,258.93,0
15611,-1.97,4.4,4.35,1828.38,128.35,340.15,0
15636,-1.08,5.22,3.11,1785.09,0.36,405.76,0
15661,-0.57,5.7,2.2,1697.1,-24.33,398.87,0
15685,0.6,6.16,1.69,1657.53,109.69,360.82,0
15711,1.24,6.66,0.45,1628.14,123.65,308.32,0
15736,2.42,5.88,-0.75,1574.67,172.37,250.89,0
15761,2.12,7.29,-1.81,1501.13,189.87,169.85,0
15786,2.34,6.78,-2.31,1440.46,34.39,57.41,0
15810,2.37,5.88,-3.8,1374.55,37.5,-48.32,0
15836,1.88,5.69,-5.26,1223.57,-37.5,-109.42,0
15860,1.99,6.42,-7.16,986.5,-71.35,-157.34,0
15886,2.07,6.63,-9.32,625.47,-160.73,-230.76,0
15911,0.64,6.69,-10.3,239.86,-249.64,-296.49,0
15935,-0.81,6.43,-10.23,-162.14,-292.38,-267.83,0
15961,-1.9,6.52,-9.51,-520.25,-186.47,-170.88,0
15985,-2.16,6.3,-8.98,-815.92,-147.02,-51,0
16011,-1.41,5.82,-8.51,-1096.65,-172.01,47.84,0
16036,-0.26,5.7,-8.06,-1375,-155.73,53.94,0
16060,0.3,5.39,-7.54,-1700.18,-155.19,-14.96,0
16086,0.47,4.65,-6.81,-1999.14,-125.19,-87.16,0
16110,0.62,3.47,-6.07,-1999.14,-197.01,-163.56,0
16136,-0.45,1.5,-4.62,-1999.14,-151.65,-243.56,0
16160,-1.11,-1.45,-2.38,-1999.14,-114.64,-265.39,0
16186,-2.63,-4.93,0.03,-1999.14,-299.09,-221.3,0
16211,-4.02,-9.67,3.27,-1999.14,-705.42,0.71,0
16235,-4.67,-14.58,7.46,-1999.14,-883.47,473.75,0
16261,-2.86,-19.05,18.19,-1999.14,-682.07,963.2,0
16285,4.57,-13.06,19.98,-1999.14,-667.19,1226.36,0
16311,6.65,-6.12,19.98,-1999.14,-1029.26,1135.33,0
16337,9.1,-4.24,19.98,-577.14,-423.84,652.16,0
16361,10.3,-4.11,19.98,647.97,219.99,18.27,0
16386,7.75,-3.98,19.98,1299.06,1250.23,-433.56,0
16411,4.58,-3.02,16.98,1560.64,670.84,-572.4,0
16436,2.05,-2.29,13.92,1586.68,65.3,-611.48,0
16462,1.14,-1.4,13.16,1558.69,214.02,-577.7,0
16486,0.22,-0.53,12.63,1586.98,124.45,-522.03,0
16512,-0.09,0.09,12.13,1631.5,129.38,-457.16,0
16536,-0.7,0.61,11.76,1680.34,55.73,-418.99,0
16562,-0.88,1.27,11.29,1765.64,101.03,-394.96,0
16586,-1.4,1.64,10.59,1848.26,144.81,-323.8,0
16612,-2.21,2.19,9.36,1906.92,109.2,-217.04,0
16637,-1.93,2.84,7.99,1915.33,94.51,-134.29,0
16662,-2.14,3.5,6.41,1865.4,44.93,-74.35,0
16687,-2.06,4.12,5.22,1779.66,69.99,-19.11,0
16711,-1.97,4.77,4.33,1704.36,127.07,53.88,0
16737,-2.3,5.33,3.82,1612.11,159.75,125.22,0
16762,-2.03,5.76,3.4,1561.37,122.86,218.33,0
16786,-1.12,6.15,2.72,1552.78,7.86,282.35,0
16812,-0.83,6.6,1.68,1526.92,-57.5,281.31,0
16836,-0.73,7,0.62,1476.25,-56.28,257.9,0
16862,0.04,6.94,0,1442.23,18.35,236.92,0
16887,0.28,7.13,-1.06,1381.86,18.41,204.36,0
16911,0.23,7.32,-1.96,1301.93,13.35,165.95,0
16937,0.32,6.95,-2.73,1227.84,38.17,138.27,0
16961,0.45,6.84,-3.61,1165.22,2.31,94.36,0
16986,0.1,7.04,-5.07,1094.49,80.48,79.67,0
17011,0.68,6.45,-6.39,973.03,154.81,67.35,0
17036,1.48,6.04,-7.92,762.24,129.26,40.52,0
17061,1.56,5.93,-9.43,492.54,115.24,-25.51,0
17086,1.48,6.34,-10.16,178.83,43.17,-107.22,0
17111,0.92,6.55,-10.02,-175.56,-23.05,-167.46,0
17135,0.03,6.43,-9.55,-513.3,-76.22,-197.71,0
17161,-1.1,5.7,-8.73,-795.86,-111.34,-173.13,0
17186,-1.69,4.85,-8.34,-1053.72,-106.04,-83.93,0
17211,-0.91,4.78,-8.09,-1305.91,-101.22,18.88,0
17236,-0.57,5.44,-7.64,-1631.22,-152.93,15.89,0
17260,-0.3,4.89,-6.84,-1959.51,-31.1,-24.23,0
17286,-0.15,3.82,-5.73,-1999.14,-101.41,-56.06,0
17310,-0.11,2.19,-4.72,-1999.14,-221.95,-63.74,0
17336,-0.5,-0.05,-3.41,-1999.14,-310.67,-67.89,0
17361,-1.5,-3.5,-1.05,-1999.14,-241.34,-86.37,0
17385,-2.52,-7.78,2.35,-1999.14,-176.34,-30.51,0
17411,-2.79,-12.99,5.95,-1999.14,-151.83,138.14,0
17435,-2.98,-16.13,14,-1999.14,-292.44,430.58,0
17461,1.92,-14.52,19.98,-1999.14,-1431.7,918.93,0
17486,5.55,-11.54,19.98,-1999.14,-1518.46,1181.24,0
17511,8.51,-6.99,19.98,-1944.14,-806.28,920.09,0
17537,10.48,-4.94,19.98,-468.91,-76.83,390.64,0
17561,9.8,-5.37,19.98,553.95,797,-163.99,0
17586,7.21,-4.81,19.98,1182.66,735.78,-504.05,0
17611,4.92,-3.95,16.76,1463.51,606.21,-645.02,0
17636,2.56,-3.54,14.55,1564.18,471.21,-681.36,0
17662,1.04,-2.58,14.24,1619.67,357.98,-649.47,0
17686,-0.27,-1.99,14.09,1708.63,263.59,-540.26,0
17712,-0.32,-1.07,13.3,1837.53,145.54,-454.84,0
17736,-0.2,-0.8,12.4,1929.85,75.54,-425.14,0
17762,-0.79,-0.21,11.82,1996.86,167.07,-399.84,0
17787,-0.74,-0.07,11.53,1996.86,286.09,-329.84,0
17812,-1.41,0.6,9.46,1996.86,218.71,-265.27,0
17837,-1.62,1.05,8.31,1996.86,279.51,-197.34,0
17862,-1.13,1.66,7.16,1996.86,370.97,-124.54,0
17887,-1.39,2.54,4.98,1996.86,231.09,-59.96,0
17912,-2.12,3.37,3.46,1996.86,119.32,-0.57,0
17937,-1.44,3.86,2.67,1996.86,186.15,79.91,0
17962,-1.44,4.86,1.46,1915.58,133.35,131.68,0
17987,-1.28,5.36,0.32,1802.29,148.47,175.22,0
18012,-0.8,5.49,-0.11,1728.38,168.77,210.46,0
18037,-0.6,5.92,-0.87,1686.68,156.7,211.68,0
18062,-0.4,6.14,-2.23,1620.28,56.03,210.76,0
18087,0.03,6.22,-3.69,1510.4,60.18,206.8,0
18112,0.95,6.2,-5.02,1399.61,51.28,179.36,0
18137,1.02,6.56,-6.26,1263.02,-50.98,102.53,0
18161,1.51,6.41,-7.55,1091.26,80.67,-1.55,0
18187,2.39,7.15,-9.25,777.3,-26.35,-170.63,0
18212,1.56,6.61,-10.64,411.2,-64.82,-303.68,0
18236,-0.25,6.52,-9.8,106.33,-139.76,-355.02,0
18262,-2.09,6.32,-9.27,-159.58,-188.42,-286.67,0
18286,-2.79,6.07,-8.78,-391.35,-116.65,-164.72,0
18312,-2.59,5.91,-8.96,-626.41,-100.49,-24.66,0
18336,-1.66,5.49,-9.25,-884.27,-108.23,71.38,0
18361,-0.97,4.99,-9.11,-1182.62,-118.3,85.22,0
18387,-0.5,4.86,-8.56,-1501.89,-116.83,50.83,0
18411,-1.3,4.62,-7.37,-1860.79,-219.58,16.92,0
18437,-1.74,3.87,-5.98,-1999.14,-151.41,30.83,0
18461,-1.31,3.15,-4.92,-1999.14,-147.62,73.57,0
18486,-0.3,1.62,-4.31,-1999.14,-424.02,119.06,0
18512,-0.88,-1.36,-2.75,-1999.14,-549.51,119.73,0
18536,-1.96,-5.41,0.41,-1999.14,-411.1,139.12,0
18562,-2.1,-9.76,3.99,-1999.14,-363.66,305.21,0
18586,-1.45,-13.94,7.47,-1999.14,-898.11,649.85,0
18612,-0.66,-17.8,13.3,-1999.14,-1606.57,1178.62,0
18637,2.38,-18.94,19.98,-1999.14,-1437.06,1653.01,0
18662,10.14,-12.93,19.98,-1999.14,-866.09,1644.04,0
18688,11.65,-8.07,19.98,-1879.57,-458.72,1169.17,0
18712,13.2,-6.89,19.98,-542.08,-333.54,415.76,0
18738,12.13,-6.72,19.98,487.85,626.15,-285.08,0
18762,8.36,-6.61,19.98,1111.01,1235.04,-666.54,0
18788,4.69,-5.66,16.95,1450.4,791.21,-744.53,0
18813,2.46,-4.8,14.8,1594.18,627.67,-710.08,0
18838,1.49,-3.95,13.38,1665.52,698.83,-608.19,0
18863,0.59,-3.14,12.38,1678.08,452.67,-502.76,0
18888,0.28,-2.11,12.54,1675.28,270.6,-439.53,0
18913,-0.8,-1.97,12.89,1780.27,282.07,-370.94,0
18939,-0.68,-1.46,12.66,1928.57,242.31,-327.64,0
18963,-0.22,-1,12.1,1996.86,230.42,-285.45,0
18989,-0.55,-0.5,10.5,1996.86,59.93,-298.8,0
19013,-0.92,0.04,9.42,1996.86,168.53,-309.47,0
19039,-1.69,0.64,8.71,1996.86,224.87,-247.83,0
19064,-2.07,1.06,7.07,1996.86,204.81,-145.76,0
19088,-1.6,2.32,4.78,1996.86,126.82,-69.78,0
19114,-2.05,2.9,3.28,1996.86,46.52,-7.71,0
19138,-1.54,4.28,2.54,1996.86,199.08,49.42,0
19164,-1.11,5.2,1.28,1943.87,78.47,107.59,0
19188,-1.07,5.68,-0.49,1807.04,-11.47,134.79,0
19213,-1.14,6.05,-1.27,1655.7,34.02,133.39,0
19239,-0.48,6.57,-1.86,1533.57,159.57,132.47,0
19263,-0.02,7.28,-3.14,1414.42,97.98,129.79,0
19288,-0.13,7.07,-4.49,1241.87,-1.41,110.34,0
19313,0.44,7.36,-5.55,1064.06,56.82,75.03,0
19338,0.74,7.46,-6.29,858.09,-33.42,11.25,0
19363,0.4,7.49,-6.7,643.09,-0.61,-63.38,0
19388,0.18,7.42,-6.86,444.13,-15.25,-98.81,0
19413,-0.18,7.5,-7.12,231.88,-39.58,-99.9,0
19437,-0.78,7.79,-7.13,30.54,-40.92,-119.48,0
19463,-0.83,7.82,-6.82,-156.11,-78.48,-111.85,0
19487,-1.27,7.65,-6.48,-341.05,-105.73,-105.76,0
19512,-1.46,7.34,-6.29,-500.25,-71.77,-62.04,0
19538,-1.74,6.85,-6.9,-684.7,-119.58,14.85,0
19562,-0.68,6.6,-8.26,-945.25,-255.06,103.63,0
19587,-0.02,5.57,-8.8,-1322.5,-407.01,124.12,0
19612,-0.04,5.13,-8.69,-1774.69,-380.37,80.1,0
19637,-0.64,3.85,-7.13,-1999.14,-319.82,42.72,0
19663,-1.18,2.48,-5.16,-1999.14,-357.93,63.63,0
19687,-2.22,0.22,-2.89,-1999.14,-384.02,129.36,0
19712,-3.05,-2.56,-0.47,-1999.14,-324.94,268.87,0
19737,-3.48,-6.15,2.54,-1999.14,-320.06,498.69,0
19762,-3.94,-9.77,5.72,-1999.14,-590.55,843.32,0
19787,-3.26,-14.38,9.64,-1999.14,-981.82,1306,0
19812,0.76,-17.35,17.84,-1999.14,-480.98,1668.19,0
19838,9.05,-11.09,19.98,-1999.14,-701.64,1652.76,0
19863,7.53,-7.56,19.98,-1999.14,-874.69,1446.79,0
19888,12.02,-6.33,19.98,-1148.42,-864.39,907.95,0
19913,12.36,-5.89,19.98,-220.92,-14.15,278.2,0
19938,11.38,-5.42,19.98,397.73,991.08,-273.8,0
19964,7.35,-4.86,17.52,769.67,478.16,-543.92,0
19988,5.1,-3.69,15.03,937.54,185.3,-657.21,0
20013,3.52,-2.85,13.38,1036.56,312.07,-680.51,0
20038,2.43,-2.32,13.1,1094.79,340.66,-656.6,0
20063,1.81,-1.8,14.07,1195.16,163.04,-582.83,0
20089,1.24,-1.59,13.94,1334.18,85.3,-527.95,0
20113,1.33,-1.38,14.01,1493.33,22.37,-540.81,0
20139,1.25,-1,14.69,1682.1,288.47,-553.07,0
20163,0.64,-0.95,13.68,1947.16,317.74,-501.48,0
20189,0.43,-0.63,12.34,1996.86,226.76,-482.52,0
20213,0,-0.52,11.18,1996.86,177.92,-474.66,0
20239,-0.61,0.14,9.5,1996.86,286.4,-442.64,0
20264,-0.22,1,7.72,1996.86,173.84,-363.56,0
20289,-1.3,2.09,5.12,1996.86,2.19,-305.94,0
20314,-1.57,3.34,3.76,1996.86,83.1,-260.21,0
20338,-1.71,4.1,2.86,1996.86,324.5,-154.48,0
20364,-1.51,4.88,1.67,1897.65,84.39,-33.56,0
20389,-1.84,5.68,0.2,1745.64,-3.24,18.14,0
20413,-1.62,5.95,-0.36,1578.57,96.52,71.5,0
20439,-1.42,6.19,-0.66,1484.97,139.02,151.5,0
20463,-1.15,6.66,-0.92,1401.25,213.41,208.45,0
20489,-0.69,7.04,-1.43,1350.46,188.77,244.36,0
20514,-0.79,6.96,-2.16,1309.24,160.18,267.84,0
20538,-0.21,6.82,-2.81,1268.15,149.45,281.68,0
20564,1.15,7.19,-3.76,1232.72,122.43,282.29,0
20588,1.49,7.21,-5.54,1177.66,-150.86,231.56,0
20614,2.27,6.98,-7.98,1037.72,-225.19,109.48,0
20638,2.58,6.16,-8.13,852.78,-50.13,-27.59,0
20664,2.18,5.98,-9.82,566.02,25.18,-160.21,0
20689,1.83,5.61,-10.56,225.23,28.71,-264.72,0
20713,0.81,5.51,-10.38,-123.85,-44.52,-322.89,0
20739,-0.56,5.28,-9.78,-446.23,-138.23,-306.55,0
20763,-2.24,4.84,-8.9,-700.8,-87.5,-235.76,0
20788,-2.61,4.1,-8.77,-945.86,-105.73,-71.37,0
20814,-1.59,3.34,-9.22,-1229.27,-172.44,116.25,0
20838,-0.33,3.29,-9.83,-1602.37,-278.78,178.51,0
20864,0.6,2.87,-9.7,-1999.14,-358.9,105.4,0
20888,0.7,1.65,-8.53,-1999.14,-326.65,15.4,0
20914,0.45,-0.02,-6.81,-1999.14,-376.95,-38.2,0
20938,-0.54,-3.17,-4.13,-1999.14,-315.12,-67.83,0
20963,-1.77,-7.53,-0.58,-1999.14,-212.69,-54.29,0
20989,-3.6,-12.95,4.27,-1999.14,-256.89,-8.56,0
21013,-5.4,-19.14,10.16,-1999.14,-62.75,275.34,0
21039,-2.43,-19.01,19.98,-1999.14,98.23,708.32,0
21063,0.11,-14.06,19.98,-1999.14,-1835.29,1239.9,0
21089,3.65,-10.11,19.98,-1999.14,-894.26,1427.09,0
21114,10.06,-5.9,19.98,-1484.94,-933.53,1057.16,0
21139,9.94,-4.87,19.98,-333.3,25.24,427.9,0
21164,9.63,-4.41,19.98,351.26,953.89,-160.51,0
21189,6.43,-4.25,18.26,689.55,622.67,-482.7,0
21214,3.37,-3.77,16.03,837.91,493.34,-579.9,0
21240,1.99,-2.63,14.33,930.77,328.16,-569.78,0
21264,1.2,-1.78,13.43,955.89,289.57,-533.8,0
21290,0.29,-1.54,14,973.33,267.68,-462.16,0
21314,-0.38,-1.13,14.72,1076.44,-0.13,-377.34,0
21339,-0.43,-0.94,14.62,1234.06,39.14,-328.86,0
21364,-0.46,-0.82,14.93,1419.3,200.91,-306.55,0
21389,-0.22,-1,14.94,1653.63,327.8,-265.69,0
21415,-0.21,-0.82,13.93,1856.62,197.43,-240.88,0
21439,-0.41,-0.86,12.45,1992.59,112.07,-236.12,0
21465,-0.7,-0.36,11.19,1996.86,165.18,-236.85,0
21489,-1.18,0.64,9.81,1996.86,176.58,-201.67,0
21515,-1.7,1.02,8.58,1996.86,195.66,-126.24,0
21540,-1.81,1.96,7.44,1996.86,206.46,-56.92,0
21565,-1.6,2.81,6.46,1996.86,174.32,5.52,0
21590,-2.25,3.39,4.85,1996.86,157.31,72.9,0
21614,-1.77,3.79,3.35,1996.86,165.54,144.36,0
21640,-1.26,4.55,2.82,1949.79,145.91,169.18,0
21664,-0.58,5.33,1.88,1903.63,144.26,180.83,0
21690,-0.61,5.05,0.49,1867.77,-2.93,197.78,0
21715,-0.48,5.12,-0.64,1816.68,-71.77,201.74,0
21739,-0.08,5.8,-1.22,1715.03,-10.55,170.83,0
21765,0.16,5.83,-2.34,1678.26,6.82,139.85,0
21789,0.04,5.64,-3.67,1637.84,68.35,110.7,0
21814,0.32,4.88,-5.46,1541.86,129.75,80.64,0
21840,1.09,5.18,-7.7,1342.23,65.18,26.07,0
21864,1.69,5.1,-10.13,1010.65,-73.36,-43.2,0
21889,1.48,5.23,-11.66,631.99,-108.11,-127.34,0
21914,0.5,5.19,-12.18,205.6,-153.48,-218.99,0
21939,-0.7,5.15,-11.77,-188.43,-184.76,-258.5,0
21965,-2.15,5.19,-10.35,-509.21,-124.52,-234.96,0
21989,-2.57,5.22,-8.96,-754.94,-46.35,-162.1,0
22015,-2.2,5.08,-8.12,-967.62,-95.55,-51.43,0
22039,-1.47,4.97,-7.84,-1179.03,-177.5,36.31,0
22064,-0.49,4.8,-7.76,-1426.95,-253.48,37.47,0
22089,0.16,5.01,-7.65,-1742.62,-330.18,-21.92,0
22114,-0.02,3.85,-7.23,-1999.14,-425.73,-98.44,0
22140,-0.85,2.28,-6.3,-1999.14,-433.9,-130.57,0
22164,-1.46,0.24,-5.05,-1999.14,-440.79,-119.84,0
22189,-1.07,-2.56,-3.61,-1999.14,-532.5,-53.56,0
22214,-1.1,-6.74,-0.31,-1999.14,-881.46,60.77,0
22239,-5.16,-11.7,4.81,-1999.14,-1229.99,321.13,0
22265,-4.32,-18.86,13.27,-1999.14,-504.76,943.2,0
22289,-1.11,-14.99,19.98,-1999.14,-16.71,1286.24,0
22315,6.56,-9.55,19.98,-1999.14,-1315.66,1467.58,0
22340,2.95,-5.93,19.98,-1999.14,-844.93,1404.05,0
22365,10.34,-4.76,19.98,-930.86,-1992.36,1014.84,0
22391,11.71,-4.14,19.98,-32.94,-172.75,423.02,0
22415,8.8,-3.65,18.03,421.87,785.9,-116.61,0
22441,6.59,-3.08,14.82,653.21,206.15,-401.55,0
22465,4.21,-2.9,13.16,705.77,156.09,-514.11,0
22490,2.93,-2.45,12.01,701.38,133.96,-508.74,0
22515,1.85,-1.83,12.06,683.82,98.1,-458.25,0
22540,1.35,-1.31,13.33,727.97,141.27,-377.95,0
22566,1.3,-1.05,14.56,877.54,-17.57,-296.43,0
22590,1.07,-0.88,14.95,1080.89,-81.53,-274.17,0
22616,1.92,-0.74,15.02,1351.74,38.47,-291,0
22640,1.96,-0.43,14.44,1610.58,122.07,-341.3,0
22665,2.05,-0.38,13.47,1841.92,139.81,-391.55,0
22691,1.84,-0.4,12.7,1996.86,180.05,-447.09,0
22715,1.39,-0.17,11.81,1996.86,180.3,-474.96,0
22741,0.71,0.48,9.68,1996.86,85.42,-466.67,0
22765,0.33,1.41,7.49,1996.86,57.92,-454.96,0
22791,0.05,2.33,6.42,1996.86,138.04,-440.57,0
22815,-0.29,2.86,5.02,1996.86,99.26,-401.91,0
22840,-0.84,3.7,3.26,1996.86,-3.54,-354.72,0
22866,-1.43,4.33,1.91,1950.64,132.98,-324.9,0
22890,-0.87,4.95,1.55,1862.59,196.21,-276.49,0
22916,-1.62,5.42,0.86,1764.42,67.98,-198.07,0
22940,-2.06,5.5,0.19,1684.3,-128.36,-86,0
22965,-2.84,5.35,-0.66,1635.95,-234.76,25.89,0
22991,-2.6,5.54,-1.46,1591.07,91.76,91.07,0
23015,-1.92,5.47,-2.53,1560.09,258.96,140.58,0
23040,-0.75,5.87,-4.4,1501.19,357.92,191.56,0
23065,0.51,5.75,-6.67,1367.6,329.2,199.73,0
23090,1.38,6.3,-8.12,1149.61,325.85,143.57,0
23115,1.58,6.41,-9.55,912.36,298.71,35.28,0
23140,2,6.16,-10.44,630.47,206.34,-96.98,0
23166,2.38,6.05,-11.33,312.91,205.42,-223.44,0
23190,0.28,6.12,-11.69,-46.11,86.64,-318.62,0
23215,-0.92,5.33,-11.58,-415.31,9.57,-305.69,0
23240,-2.44,4.76,-10.73,-788.42,-65.61,-192.1,0
23265,-3.14,4.16,-9.4,-1081.4,-26.47,-41.49,0
23290,-2.57,4.13,-8.34,-1328.66,-94.7,133.45,0
23315,-1.11,4.44,-8.47,-1596.83,-183.48,287.17,0
23340,0.23,3.52,-8.92,-1979.99,-375.98,343.2,0
23365,0.55,2.13,-8.88,-1999.14,-404.57,301.74,0
23390,0.23,-0.21,-7.96,-1999.14,-202.87,197.96,0
23416,0.18,-3.17,-6.01,-1999.14,-55.55,116.62,0
23440,-0.64,-7.9,-1.38,-1999.14,-314.21,191.01,0
23465,-2.38,-12.6,3.97,-1999.14,-603.05,528.44,0
23490,-4.07,-18.24,10.81,-1999.14,-859.26,1102.16,0
23516,-6.5,-19.65,19.45,-1999.14,-1351.33,1853.13,0
23540,7.37,-14.49,19.98,-1999.14,-1175.11,1997.7,0
23566,13.28,-8.64,19.98,-1999.14,-264.09,1978.06,0
23591,13.11,-5.93,19.98,-893.11,-430.85,1254.66,0
23616,15.71,-6.06,19.98,112.3,-274.27,429.6,0
23641,13.27,-5.32,19.36,612.12,634.5,-216.43,0
23666,9.79,-4.36,15.52,849.92,792.98,-577.89,0
23691,6.7,-2.94,12.66,912.17,182.74,-745.51,0
23717,5.23,-2.28,11.64,855.41,64.45,-803.37,0
23741,4.46,-1.64,11.82,798.27,86.58,-796.24,0
23767,3.36,-1.26,12.05,790.83,-76.89,-770.02,0
23791,2.5,-0.68,12.29,834.98,-89.82,-755.2,0
23816,2.94,-0.24,13.4,969.31,106.15,-751.18,0
23842,2.81,-0.12,13.82,1176.62,100.79,-736.3,0
23866,2.21,0.19,13.27,1373.45,40.97,-734.47,0
23892,2.74,0.45,12.62,1557.17,37.68,-782.09,0
23916,2.32,0.61,11.79,1671.19,27.62,-840.38,0
23942,1.77,0.92,10.49,1768.08,17.5,-851.42,0
23966,0.55,1.64,9.14,1803.14,-54.94,-817.94,0
23991,-0.51,2.41,7.65,1783.26,-138.42,-737.95,0
24017,-0.99,3.52,6.56,1734.85,-63.66,-655.45,0
24041,-0.64,4.4,5.35,1695.15,-59.27,-575.45,0
24067,-1.51,5.04,4.12,1623.39,-113.78,-503.62,0
24091,-1.58,5.7,3.37,1529.48,-21.16,-412.89,0
24117,-1.59,6.02,3.26,1459.73,-85.49,-310.69,0
24142,-2.06,6.39,3.09,1424.97,-61.59,-224.84,0
24166,-1.2,6.57,2.45,1456.25,-3.48,-162.04,0
24192,-0.76,7.02,1.92,1444.06,-96.34,-120.33,0
24216,-1.34,6.88,0.83,1442.78,-120.19,-108.2,0
24242,-1.37,6.69,0.06,1466.92,20.54,-129.9,0
24266,0.19,6.58,-0.54,1498.75,147.8,-154.23,0
24291,0.13,6,-1.92,1500.58,78.96,-176.49,0
24317,-0.83,6.01,-3.21,1448.81,-8.36,-227.83,0
24341,-0.13,5.95,-4.39,1384.36,134.14,-277.4,0
24367,-0.19,5.37,-6.3,1309.79,258.1,-250.82,0
24391,-0.38,4.72,-8.48,1138.39,176.4,-242.95,0
24416,-1.25,4.97,-10.74,858.33,125.6,-255.15,0
24442,-0.86,4.87,-11.65,500.96,281.15,-241.18,0
24466,-1.72,4.95,-12.4,103.46,204.02,-202.77,0
24492,-2.69,5.26,-12.1,-303.73,68.59,-110.02,0
24516,-3.56,4.88,-11.18,-675.98,-15.55,13.94,0
24541,-3.8,4.54,-10.02,-969.21,50.91,142.17,0
24567,-2.91,4.88,-9,-1242.99,80.48,258.26,0
24591,-1.82,4.48,-8.74,-1523.47,34.08,354.6,0
24617,-1.7,3.8,-8.57,-1848.47,-90.92,425.76,0
24641,-1.83,3.25,-8.33,-1999.14,-243.6,506.86,0
24666,-1.66,1.75,-7.2,-1999.14,-230.43,588.57,0
24691,-1.18,-0.76,-5.48,-1999.14,-145.06,674.05,0
24716,-1.73,-3.61,-2.54,-1999.14,-217.32,825.88,0
24742,-1.61,-8.33,2.1,-1999.14,-188.42,997.04,0
24766,-2.74,-13.19,7.57,-1999.14,-15.07,1165.21,0
24792,-1.15,-18.2,19.57,-1999.14,1034.07,1331.91,0
24816,4.93,-9.2,19.98,-1999.14,-93.91,1183.8,0
24842,3.38,-6.27,19.98,-1999.14,-1838.16,1264.35,0
24868,8.22,-3.74,19.98,-1255,-1045.42,1103.74,0
24892,12.54,-2.28,19.98,-144.16,22.68,582.1,0
24918,11.63,-1.19,19.98,494.49,847.79,45.34,0
24942,8.59,-1.07,16.98,762.42,1044.8,-317.89,0
24967,5.57,-0.6,14.13,846.87,231.76,-466.55,0
24992,3.76,-0.4,13.06,810.77,35.36,-472.16,0
25017,3.15,0.04,12.78,815.47,3.04,-372.4,0
25043,2.28,0.54,12.43,851.02,-164.58,-305.75,0
25067,2.48,0.93,12.73,916.62,-48.6,-285.75,0
25092,2.66,1.18,13.46,1039.67,12.62,-293.8,0
25117,3.22,1.05,13.85,1232.72,-88.97,-328.13,0
25142,2.86,1.03,13.11,1454.67,37.98,-398.44,0
25168,2.87,1.1,12.46,1651.92,137.92,-473.44,0
25192,2.64,1.38,11.43,1811.19,43.53,-529.78,0
25218,1.4,1.77,10.39,1919.72,114.69,-574.04,0
25242,1.48,1.92,9.59,1996.86,166.27,-583.01,0
25268,0.55,2.38,7.61,1996.86,27.31,-560.45,0
25293,-0.17,3.22,5.28,1996.86,-108.42,-527.58,0
25317,-1.06,4.21,3.77,1994.05,-90.67,-484.9,0
25343,-1.48,5.1,3,1890.33,66.7,-414.9,0
25367,-1.82,5.42,2.22,1826.74,8.65,-285.69,0
25393,-2.11,5.55,1.73,1794.73,-24.27,-172.46,0
25417,-1.93,5.69,1.31,1813.38,131.15,-100.39,0
25442,-1.6,6.05,0.61,1861.68,110.24,-32.71,0
25468,-1.26,5.6,-0.75,1903.02,158.16,17.29,0
25492,-0.78,5.5,-2.6,1912.04,119.02,47.84,0
25517,0.14,5.02,-3.82,1829.97,-12.14,66.86,0
25542,0.42,4.98,-6.03,1721.01,73.71,70.16,0
25567,1.81,4.44,-7.77,1561.13,162.92,26.56,0
25593,2.14,4.34,-10.05,1320.16,-20.19,-81.79,0
25617,2.33,3.78,-11.59,999.61,-149.03,-240.63,0
25642,1.94,3.28,-12.54,628.15,-189.88,-390.08,0
25667,0.12,3.11,-12.36,256.14,-245.25,-479.17,0
25692,-1.86,3.64,-11.99,-69.52,-180,-476.12,0
25717,-3.09,4.01,-11.09,-344.89,-117.2,-396.85,0
25742,-4.22,4.28,-10.14,-599.7,-89.94,-250.94,0
25768,-4.71,4.43,-9.29,-818.24,-89.45,-44.17,0
25792,-4.45,4.36,-9.04,-1037.44,-201.1,180.09,0
25817,-3.65,4.17,-9.14,-1270.37,-220.43,376.19,0
25842,-2.61,4,-9.16,-1541.34,-281.28,508.02,0
25867,-2.24,4.09,-9.13,-1850.6,-444.51,598.38,0
25893,-1.82,3.1,-8.38,-1999.14,-395.12,668.02,0
25917,-2.11,2.84,-7.04,-1999.14,-271.71,745.27,0
25943,-2.72,1.44,-4.88,-1999.14,-204.09,855.45,0
25967,-2.4,-1.1,-2.52,-1999.14,-100.49,1049.05,0
25993,-1.68,-4.41,-0.33,-1999.14,-45.92,1275.51,0
26018,-1.64,-8.54,2.83,-1999.14,-156.04,1514.35,0
26043,0.05,-14.41,6.65,-1999.14,-323.29,1840.2,0
26068,1.4,-17.75,11.81,-1999.14,-920.85,1997.7,0
26093,4.22,-19.04,18.45,-1999.14,-1543.71,1997.7,0
26118,9.38,-15.06,19.42,-1999.14,-1783.4,1997.7,0
26143,13.43,-13.28,16.94,-1999.14,-1649.87,1997.7,0
26169,16.87,-11.9,15.24,-1325.24,-1331.45,1911.91,0
26194,18.6,-10.44,15.58,-575.31,-355.92,989.23,0
26219,18.05,-9.89,15.06,-12.51,949.68,131.8,0
26244,14.34,-9.63,14.52,487.67,1043.89,-432.16,0
26269,11.76,-8.15,12.82,819.74,260.6,-753.62,0
26294,10.42,-7.05,11.31,956.08,210.91,-955.57,0
26320,8.86,-6.69,10.78,1040.4,519.93,-1060.99,0
26344,7.52,-6.15,11.11,1135.34,433.41,-1107.27,0
26370,6.69,-5.28,10.87,1252.17,361.39,-1134.28,0
26394,6.53,-4.48,10.66,1350.28,479.99,-1170.75,0
26420,6.36,-3.92,11.15,1466.68,437.86,-1214.28,0
26445,5.38,-3.46,11.12,1600.15,417.43,-1278.79,0
26470,4.95,-2.81,10.4,1734.24,476.45,-1325.13,0
26496,4.14,-2.19,9.59,1830.76,509.99,-1354.1,0
26520,3.68,-1.82,9.56,1926.74,583.16,-1343.98,0
26546,2.45,-0.91,8.84,1996.86,558.95,-1285.01,0
26570,0.84,0.15,7.51,1996.86,494.08,-1199.89,0
26596,-0.14,1.45,6.2,1996.86,441.15,-1079.34,0
26621,-0.31,2.82,5.34,1996.86,516.94,-927.21,0
26646,-1.27,3.5,3.96,1948.5,420.85,-735.81,0
26671,-2.13,4.21,2.84,1876.25,321.33,-545.33,0
26695,-2.35,5.25,2.19,1784.12,314.5,-411.06,0
26721,-1.69,5.49,1.61,1746.74,306.15,-286.24,0
26746,-1.84,5.81,0.22,1682.65,155.6,-180.63,0
26771,-2,6.21,-0.89,1572.96,71.64,-95.88,0
26796,-1.55,6.67,-1.54,1451.74,12.74,-12.1,0
26820,-1.71,6.86,-2.05,1340.4,-204.94,64,0
26846,-1.56,6.96,-3.05,1249.43,-152.5,100.22,0
26871,-1.04,7.2,-4.03,1150.83,-19.03,78.2,0
26896,-0.02,7.1,-5.27,1048.21,37.92,38.08,0
26921,-0.45,7.13,-6.67,874,95.91,-32.4,0
26945,0.09,7,-7.99,657.66,188.96,-98.68,0
26970,0.22,6.95,-8.66,403.7,160.36,-132.16,0
26995,-0.21,6.63,-9.02,144.99,105.67,-172.46,0
27020,-0.44,6.52,-9.56,-127.51,-28.91,-182.1,0
27046,-1.22,6.74,-10.03,-468.06,-167.56,-158.2,0
27070,-2.11,6.39,-9.33,-811.22,-201.16,-91.37,0
27095,-3.3,5.94,-8.61,-1118.11,-270.49,25.1,0
27120,-3.42,5.6,-8.06,-1417.68,-339.64,183.39,0
27145,-3.03,5.29,-7.78,-1757.25,-381.52,365.03,0
27171,-2.97,4.26,-7.43,-1999.14,-506.77,536.37,0
27195,-2.78,2.23,-6.13,-1999.14,-589.14,688.32,0
27221,-2.7,-0.17,-4.05,-1999.14,-663.78,905.82,0
27245,-2.87,-3.03,-1.05,-1999.14,-653.17,1157.77,0
27271,-2.78,-6.79,1.86,-1999.14,-556.58,1470.26,0
27295,-1.95,-10.93,5.53,-1999.14,-345.49,1810.02,0
27321,-0.1,-14.57,9.3,-1999.14,-229.03,1997.7,0
27346,3.42,-16.14,16.38,-1999.14,-781.83,1997.7,0
27371,4.71,-14.25,17.09,-1999.14,-1606.21,1997.7,0
27396,11.92,-13.52,18.99,-1999.14,-1205.72,1997.7,0
27421,18.23,-10.69,19.98,-1343.05,-552.01,1767.64,0
27447,18.6,-8.03,19.6,-553.91,377.67,820.94,0
27472,16.94,-7.92,18.03,19.26,858.34,8.14,0
27497,13.75,-7.19,16.59,377.91,559.01,-498.62,0
27522,11.08,-6.13,15.32,598.76,258.22,-785.75,0
27547,8.95,-5.41,14.5,752.72,374.44,-914.29,0
27572,7.28,-4.69,14.01,875.34,251.15,-954.77,0
27597,6.15,-4.54,14.57,1015.28,114.99,-961.91,0
27622,6.36,-4.02,15.12,1242.17,257.19,-985.81,0
27647,5.44,-4.25,14.66,1518.08,212.01,-1026.72,0
27672,5.29,-3.92,13.8,1788.2,253.53,-1121.23,0
27697,4.97,-3.95,13,1996.86,515.17,-1224.71,0
27722,3.69,-4.04,11.84,1996.86,602.92,-1247.82,0
27748,1.45,-3.33,10.27,1996.86,492.19,-1193.92,0
27773,1.2,-2.47,8.57,1996.86,552.12,-1136.36,0
27798,0.07,-1.52,6.77,1996.86,448.53,-1037.88,0
27823,-0.96,-0.43,5.07,1996.86,425.85,-900.08,0
27848,-1.2,1.08,3.56,1996.86,565.9,-741.48,0
27873,-1.47,2.29,2.29,1996.86,466.58,-588.5,0
27898,-1.88,3.28,1.1,1996.86,386.33,-467.28,0
27923,-2.03,3.93,-0.12,1996.86,461.76,-357.46,0
27948,-1.3,4.85,-1.3,1945.76,457.31,-251.06,0
27973,-1.33,5.38,-2.69,1795.76,369.93,-165.82,0
27998,-1.33,5.96,-3.81,1610.09,302.61,-112.28,0
28024,-1.49,6.03,-5.05,1436.86,194.81,-36.43,0
28048,-2.02,6.39,-5.98,1212.6,121.4,38.21,0
28073,-1.72,6.12,-6.71,1031.38,93.29,124.48,0
28098,-1.25,6.24,-7.95,824.8,57.37,193.57,0
28123,-0.85,6.61,-9.41,554.8,-60.98,241.74,0
28147,-0.18,6.98,-10.36,219.8,-183.23,235.46,0
28173,-0.13,6.76,-10.71,-127.45,-182.62,185.28,0
28198,-0.38,6.43,-10.46,-469.28,-213.6,149.79,0
28223,-0.65,5.97,-9.46,-794.88,-176.89,121.68,0
28248,-0.96,5.56,-8.64,-1063.36,-140.73,112.9,0
28273,-1.32,5.08,-8.09,-1333.11,-124.88,139.48,0
28298,-1.84,4.72,-8.18,-1661.4,-236.22,199.79,0
28324,-2.4,3.69,-7.43,-1999.14,-374.39,319.97,0
28348,-2.06,2.21,-6.59,-1999.14,-484.21,494.97,0
28373,-2.28,0.38,-5.02,-1999.14,-669.27,697.41,0
28398,-2.28,-2.28,-2.97,-1999.14,-836.15,973.5,0
28423,-1.68,-6.02,0.29,-1999.14,-861.89,1274.53,0
28448,-1.99,-10.01,3.28,-1999.14,-872.43,1626.66,0
28473,-0.47,-13.84,7.23,-1999.14,-648.05,1969.83,0
28499,1.73,-15.93,11.19,-1999.14,-516.83,1997.7,0
28524,4.94,-18.47,16.89,-1999.14,-204.76,1997.7,0
28549,9.33,-14.99,19.98,-1999.14,-198.3,1997.7,0
28574,9.56,-12.97,19.98,-1999.14,-645.06,1888.31,0
28599,13.43,-11.33,19.98,-1200.06,-808.53,1377.46,0
28625,15.13,-9.63,18.85,-447.26,-418.48,775.82,0
28649,14.54,-8.43,17.46,85.47,716.76,183.69,0
28675,11.89,-7.17,16.49,454.07,908.16,-233.26,0
28699,9.41,-6.39,15.05,689.68,417.8,-476.73,0
28725,7.92,-5.7,13.8,820.41,126.58,-602.64,0
28750,6.69,-5.44,13.13,899.49,281.64,-669.78,0
28775,5.85,-5.45,13.56,987.17,334.87,-677.52,0
28800,5.27,-4.95,13.89,1109.67,282.68,-672.95,0
28825,5.11,-4.51,13.62,1260.77,260.6,-712.03,0
28850,4.82,-4.35,13.96,1428.51,207.31,-775.99,0
28875,4.35,-4.23,14.11,1661.5,179.14,-840.26,0
28900,3.73,-4.09,13.34,1886.49,262.55,-909.22,0
28926,3.07,-3.49,11.93,1996.86,244.63,-958.07,0
28950,2.19,-3.09,11.08,1996.86,387.31,-979.41,0
28976,1.56,-2.52,10.58,1996.86,548.71,-935.69,0
29000,1.24,-1.81,9.03,1996.86,526.45,-830.02,0
29026,-0.29,-0.39,6.6,1996.86,363.71,-713.92,0
29051,-1.06,0.94,5.41,1996.86,305.6,-626.67,0
29075,-0.68,1.65,4.23,1996.86,320.54,-491.36,0
29101,-1.43,2.8,3.05,1996.86,208.9,-330.69,0
29125,-2.25,3.62,1.6,1996.86,132.49,-200.94,0
29151,-1.17,3.93,1.03,1949.54,318.89,-101,0
29176,-0.72,4.8,-0.15,1882.65,239.51,-37.22,0
29201,-0.82,5.03,-2.06,1757.53,36.4,8.39,0
29226,-0.21,5.23,-3.8,1575.83,78.47,6.68,0
29250,0.16,6.03,-5.13,1370.16,88.23,13.45,0
29275,0.61,5.81,-5.96,1125.28,17.62,8.88,0
29300,-0.38,6.45,-6.09,850.22,-46.16,-8.99,0
29325,-0.54,6.45,-5.89,669.49,68.29,-11.98,0
29350,-0.58,6.97,-6.1,509.68,94.2,-12.95,0
29375,-0.38,6.84,-6.76,337.48,81.15,-8.32,0
29400,-0.23,6.4,-7.35,155.17,106.28,3.21,0
29424,-0.11,6.28,-8.35,-78.49,4.26,-7.34,0
29449,0.14,6.47,-8.9,-372.87,-71.41,-41.61,0
29475,-0.36,5.95,-9.49,-736.16,-160.06,-61.43,0
29499,-1.25,5.26,-9.2,-1135.25,-209.7,-36.73,0
29524,-1.68,4.94,-8.83,-1538.11,-212.62,31.56,0
29549,-1.71,4.05,-8.1,-1981.7,-246.77,119.06,0
29574,-1.51,2.78,-6.97,-1999.14,-316.65,224.36,0
29599,-1.84,0.92,-5.44,-1999.14,-503.41,356.62,0
29624,-2.56,-2.55,-2.7,-1999.14,-601.28,517.71,0
29650,-2.29,-6.67,0.94,-1999.14,-596.34,756.31,0
29674,-1.69,-11.41,4.67,-1999.14,-612.93,1116.55,0
29700,-2.77,-16.47,8.46,-1999.14,-683.47,1572.15,0
29724,1.26,-19.65,16.95,-1999.14,-41.16,1816.18,0
29750,7.21,-15.04,19.98,-1999.14,-373.35,1769.77,0
29775,10.36,-10.93,19.98,-1999.14,-747.92,1701.36,0
29800,7.93,-9.76,19.98,-1842.8,-1308.47,1391.18,0
29826,13,-8.61,19.98,-935.92,-1509.68,944.17,0
29850,13.29,-8.01,18.47,-280.5,101.52,405.46,0
29876,11.05,-7,17.6,159.44,1093.4,-34.11,0
29901,8.87,-6.1,16.02,469.5,571.76,-311.73,0
29926,7.61,-5.85,14.56,641.87,-38.54,-470.33,0
29951,6.65,-5.59,13.49,704.37,63.59,-554.59,0
29975,5.63,-5.47,13.17,751.69,49.08,-596.18,0
30001,5.25,-5.25,13.94,811.75,36.46,-631.73,0
30025,4.61,-5.06,14.49,951.99,73.59,-649.96,0
30051,4.24,-4.8,14.84,1170.4,111.09,-689.71,0
30076,4.55,-4.31,14.45,1422.9,137.01,-775.02,0
30100,4.18,-4.12,13.93,1647.23,208.77,-860.93,0
30126,3.77,-4.35,13.61,1877.35,218.9,-923.31,0
30150,3.24,-3.97,12.32,1996.86,202.62,-975.2,0
30176,2.37,-3.33,10.47,1996.86,253.9,-1016.11,0
30201,2.27,-2.56,9.71,1996.86,311.46,-1020.99,0
30226,1.77,-1.82,8.47,1996.86,264.26,-978.98,0
30251,-0.08,-1.05,6.61,1996.86,178.71,-915.57,0
30276,-0.75,0.39,5.05,1996.86,173.65,-833.92,0
30301,-0.55,1.34,4.16,1996.86,255.79,-745.63,0
30327,-0.22,2.34,3.25,1996.86,369.44,-632.76,0
30351,-0.98,2.75,1.61,1996.86,104.38,-529.23,0
30377,-1.78,3.29,-0.11,1996.86,45.85,-474.23,0
30401,-2.06,4.02,-1.25,1993.38,56.76,-445.94,0
30426,-1.78,4.19,-2.08,1862.16,143.23,-395.69,0
30451,-1.36,4.83,-3.08,1717.35,254.87,-297.77,0
30476,-1.49,5.03,-4.59,1586.25,121.58,-202.89,0
30502,-2.18,5.81,-5.94,1360.89,13.41,-159.48,0
30526,-2.07,6.59,-7.07,1127.54,79.26,-125.45,0
30552,-1.73,6.95,-8.37,872.17,31.76,-84.11,0
30576,-1.73,7.18,-9.06,583.64,-51.41,-60.15,0
30601,-2.27,6.98,-9.43,277.55,-132.75,-54.9,0
30627,-2.63,6.56,-9.31,16.15,-44.76,-26.55,0
30651,-2.58,6.53,-9,-225.8,-13.6,27.72,0
30676,-2.74,6.31,-8.84,-455.68,-53.17,78.63,0
30700,-2.98,5.81,-8.46,-688.97,-101.22,141.07,0
30726,-3.01,5.5,-7.92,-913.23,-101.28,202.47,0
30750,-2.85,5.56,-7.37,-1147.38,-72.08,262.23,0
30776,-2.8,5.36,-6.91,-1415.3,-63.05,344.48,0
30801,-2.69,4.44,-6.38,-1692.98,-94.45,447.04,0
30825,-2.47,3.58,-5.9,-1988.65,-202.38,544.72,0
30851,-2.35,3.15,-5.21,-1999.14,-272.01,634.17,0
30875,-2.37,0.96,-3.6,-1999.14,-298.17,747.95,0
30901,-2.3,-1.99,-1.21,-1999.14,-322.87,903.87,0
30926,-1.9,-5.03,1.49,-1999.14,-305,1093.99,0
30951,-1.57,-8.83,4.25,-1999.14,-271.34,1330.94,0
30976,-0.41,-13.39,7.68,-1999.14,-44.33,1550.32,0
31001,2.43,-19.33,15.15,-1999.14,-131.41,1694.1,0
31026,5.25,-17.81,19.98,-1999.14,-575.79,1868.61,0
31051,6.25,-13.95,19.98,-1999.14,-1108.53,1997.7,0
31077,9,-11.85,19.98,-1999.14,-1382.86,1880.14,0
31102,12.3,-10.5,19.54,-1284.33,-1559.07,1475.75,0
31127,15.51,-8.84,18.08,-577.08,-207.14,796.06,0
31152,14.85,-8.47,17.26,-70.01,732.79,116.19,0
31177,11.52,-7.29,16.42,339.19,731.51,-371.36,0
31202,8.78,-7.1,15.12,656.75,197.25,-648.01,0
31228,7.72,-7.04,13.89,857.91,271.33,-802.52,0
31252,6.28,-6.75,13.08,971.44,420.91,-873.68,0
31278,5.12,-6.38,13.32,1039.61,360.3,-878.68,0
31302,4.77,-5.53,13.74,1149.79,230.18,-868.31,0
31328,4.52,-4.91,14,1303.82,119.81,-879.77,0
31353,3.96,-5.21,13.94,1491.56,97.31,-933,0
31378,3.78,-4.78,13.67,1704.48,285.6,-994.41,0
31403,3.34,-4.18,13.12,1911.98,392.49,-1012.88,0
31428,2.9,-4.05,12.49,1996.86,416.03,-1016.6,0
31453,2.09,-3.62,10.9,1996.86,473.1,-1033.98,0
31479,1.73,-2.83,9.72,1996.86,498.16,-1002.7,0
31503,0.84,-2.07,8.02,1996.86,389.93,-927.52,0
31529,0.15,-0.69,6.8,1996.86,354.99,-853.68,0
31553,-0.58,0.51,5.15,1996.86,220.6,-769.65,0
31578,-1.11,1.56,3.63,1996.86,194.02,-670.51,0
31603,-1.42,2.72,2,1996.86,232.07,-582.58,0
31628,-1.61,3.51,0.83,1996.86,220.66,-510.08,0
31654,-1.79,4.2,0.1,1900.09,216.88,-434.35,0
31678,-2.22,4.73,-0.81,1788.87,232.19,-360.75,0
31704,-2.06,5.06,-1.54,1686.68,239.14,-278.01,0
31728,-2.3,5.63,-2.68,1560.03,177.98,-210.69,0
31753,-2.48,5.77,-4.14,1426.68,22.25,-133.44,0
31779,-2.02,5.2,-5.22,1238.45,-30.55,-62.04,0
31803,-2.18,6.72,-6.5,1004.43,-0.13,-0.09,0
31828,-1.74,7.03,-7.64,732.11,2.5,43.69,0
31853,-1.89,7.45,-8.37,423.52,56.7,60.64,0
31878,-1.85,7.14,-8.48,98.1,62.07,97.78,0
31902,-2.35,6.97,-7.93,-170.38,-100.61,179.85,0
31928,-2.76,6.77,-7.61,-372.87,-143.6,245.09,0
31953,-2.31,6.46,-7.57,-556.29,-131.22,282.47,0
31977,-2.27,6.32,-7.54,-765.13,-179.21,293.81,0
32003,-2.83,6.09,-7.43,-986.28,-150.92,311.92,0
32027,-2.96,5.55,-6.8,-1224.82,-70.67,370.58,0
32053,-3.02,4.86,-6.29,-1483.84,-70,460.94,0
32078,-2.83,4.08,-6.01,-1774.81,-98.3,552.83,0
32103,-2.63,3.35,-5.68,-1999.14,-151.1,665.27,0
32128,-2.81,1.69,-4.65,-1999.14,-177.81,792.28,0
32152,-1.99,-0.9,-2.62,-1999.14,-157.38,939.6,0
32178,-2.19,-4.36,0.01,-1999.14,-201.47,1143.07,0
32202,-1.9,-8.59,3.43,-1999.14,-122.14,1368.44,0
32228,-0.42,-13.61,7.5,-1999.14,199.99,1526.85,0
32253,1.46,-17.15,12.21,-1999.14,44.57,1684.59,0
32278,1.85,-19.54,17.12,-1999.14,-636.46,1931.17,0
32304,6.83,-16.67,19.98,-1999.14,-588.17,1956.66,0
32328,11.13,-12.56,19.98,-1999.14,-834.2,1725.14,0
32354,10.03,-9.93,19.98,-1403.05,-1267.25,1302.77,0
32379,12.38,-8.78,17.86,-543.12,-361.77,649.78,0
32404,11.16,-8.59,16.42,30.29,739.38,76.68,0
32429,8.39,-7.61,15.54,404.98,1216.57,-303.32,0
32454,6.11,-6.99,14.61,673.46,884.5,-454.53,0
32479,4.71,-6.79,13.22,797.66,479.87,-472.52,0
32505,3.97,-6.09,11.42,806.99,296.64,-443.56,0
32529,3.54,-5.58,10.34,740.47,278.71,-431.85,0
32555,3.45,-4.57,10.23,646.99,217.31,-444.72,0
32579,2.65,-4.2,10.17,562.36,150.91,-454.53,0
32605,2.51,-3.96,11.44,556.02,130.73,-457.83,0
32629,2.42,-3.62,12.15,686.99,61.21,-449.05,0
32654,1.98,-3.21,11.98,863.39,84.45,-471.97,0
32680,2.28,-3.17,12.2,1052.84,199.38,-521.42,0
32704,2.39,-3.21,12.38,1251.99,432.49,-581.54,0
32730,2.37,-2.83,12.4,1435.77,524.69,-605.63,0
32754,1.68,-2.07,11.75,1582.29,468.34,-622.7,0
32780,0.77,-1.72,11.15,1714.24,567.79,-632.09,0
32805,1.04,-1.15,11.1,1845.21,539.32,-616.97,0
32830,0.16,-0.44,9.5,1920.27,433.77,-552.34,0
32855,-0.92,0.68,7.72,1853.87,288.96,-501.97,0
32880,-0.34,2.01,7.64,1752.29,450.11,-449.96,0
32905,-0.29,2.63,6.45,1671.01,212.19,-391.42,0
32930,-1.67,3.8,5.25,1521.56,115.36,-340.51,0
32955,-1.53,4.55,4.61,1388.69,171.58,-275.21,0
32980,-1.29,5.48,4.26,1259,106.21,-241.73,0
33005,-1.73,5.87,3.86,1142.17,45.6,-204.29,0
33030,-2.03,6.51,3.67,1028.94,89.45,-167.16,0
33055,-1.23,7.16,3.55,962.36,86.34,-164.11,0
