t_ms,ax,ay,az,gx,gy,gz,label
5,-4.24,-0.79,11.16,-11.41,-8.05,1.5,3
29,-3.96,-0.85,11.44,-1.66,1.28,1.8,3
54,-3.79,-1.08,11.23,8.04,0.54,0.46,3
79,-3.73,-1.23,10.76,15.35,0.61,-1.55,3
103,-3.78,-1.37,10.39,20.48,5.54,-2.16,3
128,-3.77,-1.38,9.8,23.52,4.81,-2.04,3
152,-3.81,-1.42,9.22,24.01,6.52,-2.04,3
177,-3.86,-1.45,8.8,22.49,9.2,-0.39,3
201,-3.85,-1.56,8.33,20.41,9.57,3.02,3
226,-3.79,-1.52,8.16,16.15,13.72,4.49,3
251,-3.61,-1.33,8.23,10.48,7.68,4.43,3
275,-3.62,-1.01,8.16,3.59,0.12,3.02,3
300,-3.84,-0.99,8.53,-1.66,-0.92,3.57,3
324,-3.99,-1.05,8.78,-3.73,-4.21,6.68,3
349,-3.8,-0.98,9,-6.78,-4.39,7.41,3
373,-3.78,-0.98,9.19,-10.13,-5,6.32,3
398,-3.88,-1,9.59,-12.09,-5.19,6.38,3
423,-4.02,-1.1,9.86,-11.78,-7.69,8.33,3
447,-3.97,-0.98,10.02,-10.5,-8.97,8.27,3
472,-4.03,-0.84,10.17,-7.51,-8.72,8.21,3
496,-4.09,-0.82,9.92,-5.2,-5.86,8.94,3
521,-4.02,-0.8,9.8,-5.26,-3.78,10.58,3
547,-3.75,-0.82,9.69,-6.6,-10,11.38,3
571,-3.61,-0.65,9.7,-6.84,-11.41,9.67,3
596,-3.63,-0.69,9.72,-5.81,-7.32,7.11,3
620,-3.57,-0.73,9.82,-4.77,-4.46,3.75,3
645,-3.62,-0.81,9.88,-4.1,-4.46,1.25,3
669,-3.55,-0.89,9.85,-2.82,-5.49,0.64,3
694,-3.64,-0.9,9.7,-1.54,-5.98,0.89,3
719,-3.42,-0.89,9.61,-1.23,-4.76,-0.39,3
743,-3.44,-0.89,9.49,-2.33,-3.91,-2.53,3
768,-3.5,-0.94,9.55,-1.9,-2.99,-2.4,3
792,-3.41,-0.89,9.55,-2.88,-2.26,-1.79,3
817,-3.58,-0.77,9.78,-4.1,-2.99,0.52,3
841,-3.37,-0.89,9.95,-4.28,-4.64,3.21,3
866,-3.36,-0.86,10.16,-5.13,-7.32,3.63,3
891,-3.44,-0.86,10.42,-3.85,-6.47,2.9,3
915,-3.31,-0.74,10.41,0.41,-5.13,3.08,3
940,-3.28,-0.79,10.17,4.56,-3.05,2.66,3
964,-3.32,-0.84,9.94,6.57,0.18,2.11,3
989,-3.27,-0.81,9.67,7.3,-1.1,1.68,3
1013,-3.15,-0.77,9.51,6.45,-0.68,0.89,3
1038,-3.13,-0.83,9.47,4.93,-0.43,-0.03,3
1063,-3.38,-0.79,9.42,2.43,3.29,-0.82,3
1087,-3.27,-0.78,9.43,2.18,1.46,0.71,3
1112,-3.18,-0.67,9.72,1.21,0.24,0.71,3
1136,-3.05,-0.71,9.76,1.94,-0.61,0.16,3
1161,-3.07,-0.8,9.78,1.82,-1.04,-1.49,3
1186,-3.08,-0.77,9.76,1.02,2.19,-2.77,3
1210,-3.28,-0.87,10.08,0.78,0.73,-2.83,3
1235,-3.43,-0.73,10.16,3.4,-1.22,-1.79,3
1259,-3.3,-0.85,9.9,5.72,1.7,-1.43,3
1284,-3.22,-0.78,9.79,6.94,4.69,-2.16,3
1309,-3.33,-0.88,9.68,7.49,3.9,-2.89,3
1334,-3.32,-0.9,9.53,7.61,4.14,-2.65,3
1359,-3.24,-0.88,9.34,5.54,2.8,-3.5,3
1383,-3.31,-0.9,9.53,3.16,2.25,-4.78,3
1408,-3.46,-0.92,9.6,2.06,0.54,-4.11,3
1432,-3.52,-0.93,9.48,1.39,-1.28,-3.68,3
1457,-3.44,-0.96,9.43,0.78,1.4,-3.87,3
1481,-3.59,-0.92,9.53,-0.2,0.18,-3.56,3
1506,-3.66,-0.83,9.62,-0.62,-3.18,-2.22,3
1531,-3.69,-0.8,9.61,0.29,-2.32,-1.98,3
1555,-3.66,-0.72,9.64,0.35,-1.04,-1.98,3
1580,-3.7,-0.67,9.56,0.6,-0.68,-1.12,3
1604,-3.65,-0.58,9.55,0.11,-0.92,-0.51,3
1629,-3.71,-0.52,9.58,-1.11,-0.86,-0.15,3
1653,-3.79,-0.58,9.76,-1.17,-0.25,1.25,3
1678,-3.74,-0.57,9.74,-0.99,0.24,3.14,3
1703,-3.61,-0.67,9.72,-1.54,1.03,3.45,3
1727,-3.46,-0.71,9.81,-2.63,-0.86,3.02,3
1752,-3.4,-0.81,10.01,-2.82,0.3,1.8,3
1776,-3.34,-0.84,10.18,-0.93,1.82,0.83,3
1802,-3.18,-0.7,10.04,2.49,0.97,-1.31,3
1827,-3.15,-0.65,9.96,5.9,4.75,-4.9,3
1851,-3.24,-0.76,9.73,7.85,10.42,-7.34,3
1876,-3.32,-0.73,9.55,7.73,10.24,-8.07,3
1900,-3.38,-0.88,9.38,5.41,5.06,-8.38,3
1925,-3.42,-0.84,9.14,3.04,0.85,-8.99,3
1949,-3.78,-0.92,9.05,1.27,1.95,-9.23,3
1974,-3.94,-1.01,8.77,-1.05,2.37,-6.25,3
1999,-3.91,-1.14,8.6,-5.07,-1.47,-1.37,3
2023,-3.96,-1.14,8.71,-9.77,-2.08,2.84,3
2048,-3.68,-1.03,8.8,-12.33,-3.11,5.83,3
2072,-3.45,-0.96,8.88,-14.46,-5.74,4.61,3
2097,-3.54,-1.01,8.84,-15.87,-0.55,1.93,3
2121,-3.81,-1.1,9.02,-17.88,4.57,1.93,3
2147,-4.02,-1.17,9.09,-19.95,5.61,3.51,3
2172,-4.09,-1.28,9.15,-25.13,9.87,4.73,3
2196,-4.33,-1.33,9.36,-32.27,11.46,5.89,3
2221,-4.66,-1.37,10,-37.15,7.01,10.03,3
2245,-4.72,-1.3,10.25,-37.94,-2.14,17.11,3
2270,-5.05,-1.23,10.79,-38.49,-10.98,25.83,3
2296,-5.44,-1.68,11.6,-36.9,-2.75,35.83,3
2320,-5.64,-1.23,12.25,-34.16,5.42,44.85,3
2345,-6.38,-0.83,13.3,-26.72,2.98,55.95,3
2369,-6.77,-0.75,13.92,-17.82,-6.04,69.85,3
2394,-7.41,-1.39,16.51,-7.94,11.28,84.49,3
2419,-7,-1.5,18.98,28.04,63.59,112.35,3
2444,-6.53,-1.6,19.98,67.3,28.53,133.2,3
2469,-4.73,-1.91,19.98,128.46,27.5,146.92,3
2493,-2.88,-2.87,19.3,183.71,41.34,141.13,3
2519,-1.36,-3.15,17.18,225.29,40.91,125.58,3
2543,-1.01,-3.74,13.83,257.24,36.82,108.02,3
2568,-0.03,-3.86,10.09,266.75,107.25,93.39,3
2594,1.48,-3.09,6.85,261.08,121.15,84.97,3
2618,3.03,-2.49,3.68,230.35,64.2,62.6,3
2643,5.85,-0.74,0.96,190.41,56.34,9.79,3
2668,8.02,-0.08,-0.02,148.16,69.75,-63.5,3
2693,8.03,-0.52,-0.29,113.71,69.63,-146.79,3
2717,6.96,-2.08,-0.6,88.52,26.52,-226,3
2742,5.17,-4.68,-0.82,53.65,-20.43,-300.51,3
2768,3.16,-7.8,-0.17,13.1,-69.15,-359.11,3
2792,1.63,-10.49,1.76,-31.35,-141.77,-407.16,3
2817,0.87,-13.68,5.42,-68.37,-203.42,-458.92,3
2842,-1.73,-17.67,10.58,-84.04,-225.86,-519.05,3
2867,-6.4,-19.65,16.93,-65.56,-221.83,-553.44,3
2891,-11.38,-19.65,19.98,-3.61,-165.43,-554.9,3
2917,-15.27,-19.65,19.98,84.93,-44.03,-498.98,3
2942,-13.31,-19.12,19.98,169.01,55,-426,3
2967,-10.22,-17.24,19.98,231.88,43.65,-356.91,3
2992,-8.91,-16.79,19.33,262.85,-40.13,-319.54,3
3016,-10.32,-15.96,18.57,290.78,-64.82,-291.85,3
3042,-12.04,-13.43,17.06,323.46,-79.27,-247.71,3
3067,-16.24,-12.21,14.12,333.03,-121.04,-180.88,3
3092,-16.05,-9.27,10.36,333.4,-108.78,-97.16,3
3117,-17.41,-6.39,6.22,305.59,-106.41,-6.12,3
3142,-16.37,-5.63,4.84,281.94,-62.87,92.23,3
3167,-14.08,-6.84,3.57,253.95,5.73,186.68,3
3192,-12.5,-7.92,1.84,214.13,2.37,265.95,3
3216,-9.7,-9.75,1.56,173.89,40.97,335.52,3
3242,-7.21,-10.7,1,125.29,28.65,391.86,3
3266,-6.46,-12.93,0.91,80.47,-15.55,438.14,3
3291,-4.74,-14.14,1.83,47.49,-5.8,478.81,3
3316,-3.92,-16.55,3.09,19.99,85.42,508.26,3
3341,-3.12,-19.65,5.87,-19.71,198.1,532.22,3
3366,-1.55,-19.65,8.66,-66.66,249.63,543.81,3
3391,-1.34,-19.65,11.68,-114.77,233.83,543.08,3
3416,2.01,-19.65,16.7,-133.97,144.2,549.05,3
3440,5.54,-19.65,19.37,-103.91,-81.77,549.36,3
3466,6.09,-19.65,19.98,-19.71,-118.84,500.94,3
3491,11.79,-19.65,19.98,53.16,-43.24,423.14,3
3516,12.91,-17.72,19.98,119.93,-120.43,323.63,3
3541,12.59,-15.72,19.98,202.42,-77.56,219.06,3
3566,10.15,-15.06,19.98,293.89,-52.63,134.85,3
3591,7.48,-15.63,19.98,379.13,-6.35,80.4,3
3615,6.15,-16.33,17.36,431.69,48.47,61.31,3
3641,6.78,-15.23,11.7,441.57,67.68,53.57,3
3666,8.65,-12.17,6.91,418.7,72.13,35.95,3
3690,11.39,-8.8,3.29,366.08,52.74,-5.33,3
3716,11.63,-6.22,0.23,305.41,57.01,-71.24,3
3740,11.38,-4.85,-0.54,236.51,67.74,-134.54,3
3765,9.75,-4.4,-1.22,176.82,39.26,-194.72,3
3791,8.58,-4.83,-1.48,116.27,10.97,-250.08,3
3815,7.87,-5.51,-1.23,54.32,-32.44,-311,3
3840,6.62,-7.86,0.49,-6.29,-91.22,-383.68,3
3864,5.5,-11.06,2.62,-55.07,-125.73,-460.63,3
3890,3.49,-16.33,5.42,-89.46,-151.71,-538.25,3
3914,1.52,-19.65,9.09,-123.73,-192.75,-610.63,3
3939,-0.59,-19.65,14.43,-134.28,-207.2,-669.59,3
3965,-4.83,-19.65,19.98,-112.15,-221.22,-701.06,3
3989,-10.2,-19.65,19.98,-19.59,-137.69,-678.62,3
4015,-13.28,-19.65,19.98,98.83,13.53,-589.23,3
4039,-9.03,-19.65,19.98,167.85,40,-480.27,3
4065,-7.01,-19.65,17.03,178.52,-34.76,-410.39,3
4090,-8.6,-19.65,16.82,165.78,-70.61,-384.6,3
4114,-14.74,-16.22,19.65,178.34,-53.11,-342.83,3
4140,-16.69,-10.08,19.98,241.75,32.68,-254.11,3
4164,-16.47,-8.14,16.76,297.67,3.53,-142.71,3
4190,-14.77,-8.57,12.26,315.78,-96.83,-34.42,3
4215,-14.44,-7.35,8.52,314.5,-75.31,49.55,3
4239,-14.09,-6.98,5.46,302.79,-24.15,131.25,3
4265,-13.53,-7.94,3.68,278.16,29.69,214.42,3
4289,-11.33,-9.89,3.02,241.33,50.18,306.31,3
4314,-8.44,-11.11,1.64,196.21,-1.53,381.92,3
4339,-7.76,-11.87,2.06,149.25,-19.39,433.2,3
4364,-7.97,-15.62,3.83,119.93,32.86,484.73,3
4389,-5.08,-18.7,6.23,85.6,103.04,530.76,3
4414,-2.64,-18.97,10.08,55.35,79.08,559.97,3
4439,-3.73,-19.65,12.04,63.1,1.52,590.39,3
4463,-3.31,-19.65,11.23,81.51,37.62,619.17,3
4489,0.21,-19.65,12.28,73.77,136.95,622.89,3
4514,1.66,-19.65,14.33,48.77,174.51,605.33,3
4538,6.56,-19.65,16.17,26.88,161.03,586.19,3
4564,12.7,-19.65,16.91,14.44,-40.8,549.42,3
4588,15.31,-19.65,18.04,58.1,-214.39,446.98,3
4614,17.2,-16.73,18.61,95.72,-97.69,270.03,3
4638,16.17,-16.7,19.98,137.55,-71.35,113.57,3
4663,13.23,-16.32,19.98,190.53,-94.39,3.39,3
4689,9.48,-16.89,18.9,269.86,-20,-66.79,3
4713,9.68,-15.93,15.88,339.25,66.82,-100.82,3
4738,10.68,-14.83,12.29,370.04,63.9,-123.62,3
4763,10.53,-13.48,8.64,374.44,63.59,-156.98,3
4788,10.28,-11.39,5.85,356.45,96.76,-197.16,3
4814,9.1,-9.86,3.39,323.16,98.35,-231.91,3
4838,8.09,-8.62,1.54,282.42,119.99,-261.61,3
4863,7.63,-8.01,0.15,246.08,137.8,-296.12,3
4888,6.8,-8.3,-0.97,203.03,113.47,-329.6,3
4913,6.37,-9.04,-1.81,146.88,45.79,-363.86,3
4937,5.44,-10.4,-1.53,75.29,-60.98,-399.29,3
4963,3.33,-13.87,0.06,-9.22,-176.65,-439.23,3
4988,2.64,-16.07,4.02,-79.95,-203.42,-485.45,3
5012,1.31,-18.9,8.46,-106.96,-199.33,-533.5,3
5038,-0.08,-19.65,13.72,-101.84,-181.04,-580.69,3
5062,-4.73,-19.65,17.4,-69.65,-157.32,-598.92,3
5087,-6.51,-19.65,19.98,-19.1,-88.91,-571,3
5113,-8.22,-19.65,19.98,18.04,-48.66,-516.42,3
5137,-7.24,-19.65,19.98,74.5,20.24,-483.31,3
5163,-8.89,-19.65,19.98,130.35,-24.21,-446.67,3
5187,-12.93,-19.28,19.98,177.12,-119.88,-383.8,3
5212,-15.04,-15.4,19.98,237.24,-62.5,-307.77,3
5237,-14.02,-13.04,19.91,298.7,5.67,-221.61,3
5262,-12.97,-10.95,17.14,342.3,-20.98,-129.84,3
5288,-14.34,-10.04,13.57,359.86,-55.86,-34.29,3
5312,-11.82,-9.94,10.13,371.81,-35.98,52.47,3
5337,-10.19,-9.46,6.75,356.81,-35.98,122.41,3
5362,-9.3,-8.48,4.3,324.92,-8.97,186.86,3
5387,-8.93,-8.59,2.71,290.05,24.57,250.95,3
5412,-6.46,-9.33,2.15,245.72,49.87,316.5,3
5437,-5.35,-9.9,0.7,192.91,32.37,365.7,3
5462,-4.04,-10.19,0.8,138.52,52.92,400.4,3
5486,-3.64,-10.68,1.73,83.52,94.51,428.99,3
5512,-2.88,-13.1,4.5,34.74,173.84,453.26,3
5536,-0.02,-14.63,7.32,-14.77,183.53,476.37,3
5561,-0.58,-16.11,8.37,-48.3,97.19,495.4,3
5586,-2.37,-19.65,8.73,-71.05,106.28,523.69,3
5611,0.18,-19.65,11.12,-108.61,140.85,547.22,3
5636,4.8,-19.65,14.72,-122.63,15.36,561.92,3
5661,8.57,-19.65,15.96,-75.32,-196.28,566.19,3
5686,11.87,-19.65,17.19,23.4,-197.62,503.32,3
5712,16.41,-19.65,17.65,113.83,-166.47,386.62,3
5736,17.91,-19.65,17.3,186.45,-169.15,244.18,3
5762,16.96,-19.65,16.99,249.38,-125.06,100.7,3
5786,14.31,-19.65,16.33,310.23,-79.09,-13.38,3
5811,11.61,-19.65,15.28,366.26,-14.27,-89.54,3
5837,10.53,-19.54,13.93,411.26,32.56,-133.44,3
5861,10.29,-18.12,10.7,435.04,66.21,-164.23,3
5887,11.02,-15.51,6.67,432.12,69.45,-199.23,3
5911,10.09,-11.61,2.4,401.87,100.54,-245.39,3
5937,9.27,-9.45,-0.03,359.13,186.88,-291.73,3
5961,6.77,-9.11,-2.03,319.44,199.51,-311.55,3
5986,5.26,-7.96,-3.62,259.19,164.93,-320.14,3
6012,5.33,-7.26,-4.18,183.22,91.58,-330.88,3
6036,4.31,-7.67,-3.79,88.28,-38.24,-347.22,3
6061,3.56,-9.05,-1.51,-10.26,-170.86,-378.86,3
6085,2.78,-11.5,3.39,-78.06,-178.91,-422.89,3
6111,1.53,-13.49,7.79,-80.32,-110.19,-483.01,3
6136,-1.01,-16.54,12.7,-30.32,-49.27,-530.94,3
6161,-2.48,-18.15,14,43.16,-22.99,-552.09,3
6186,-3.48,-19.65,14.63,95.35,-78.97,-561.42,3
6210,-5.54,-19.65,16.32,118.77,-113.17,-557.22,3
6236,-6.69,-19.65,17.81,128.71,-98.72,-548.37,3
6260,-8.76,-19.65,18.07,138.95,-65.61,-525.08,3
6286,-10.08,-19.65,18.46,154.8,-30.25,-485.87,3
6311,-14.22,-19.65,19.98,199.62,-14.21,-432.4,3
6335,-18.33,-15.89,19.2,248.03,-69.82,-333.25,3
6361,-19.29,-11.9,16.65,273.28,-101.47,-212.46,3
6385,-17.91,-10.49,13.54,294.19,-32.87,-97.71,3
6411,-15.98,-9.45,10.47,294.62,-25.37,5.46,3
6436,-13.04,-9.07,9.24,287.55,-18.3,93.45,3
6460,-10,-7.75,7.88,277.55,-51.65,167.78,3
6486,-8.26,-7.42,6.83,273.46,-61.95,219.24,3
6510,-6.95,-7.72,5.88,266.33,-0.37,264.36,3
6535,-5.71,-9.64,4.85,252.85,-3.24,313.75,3
6560,-4.13,-9.98,3.55,232.24,-26.47,356.92,3
6585,-3.8,-11.83,2.06,199.25,-47.69,394.79,3
6610,-2.17,-9.89,1.12,162.67,-44.88,421.01,3
6635,-2.31,-12.22,1.75,122.85,-2.87,443.87,3
6660,-1.25,-13.52,3,81.82,30.18,471.43,3
6684,0.07,-15.44,5.62,42.12,57.74,498.02,3
6709,-0.17,-17.26,7.77,21.76,21.7,525.52,3
6735,-0.59,-19.65,9.17,18.34,31.15,557.47,3
6759,1.01,-19.65,10.65,14.26,29.14,586,3
6784,2.68,-19.65,12.73,15.66,7.8,601.74,3
6809,5.71,-19.65,14.65,43.22,-14.64,600.39,3
6834,12.35,-19.65,15.76,87,-61.16,562.47,3
6858,18.6,-19.65,16.24,162,-223.54,452.71,3
6884,18.6,-19.65,15.02,236.39,-200.37,268.32,3
6909,18.43,-18.48,14.09,269.8,-99.27,68.02,3
6934,14.48,-18.74,14.78,310.84,-85.37,-74.9,3
6959,9.61,-19.33,13.48,354.19,1.15,-156.24,3
6983,6.46,-19.19,11.37,387.97,78.59,-183.5,3
7009,6.47,-17.14,8.87,404.86,132.8,-174.23,3
7034,7.18,-14.27,6.25,389.5,134.69,-166.49,3
7059,9.07,-11.17,3.47,355.59,100.12,-173.07,3
7084,8.59,-8.31,1.62,306.63,88.29,-205.02,3
7108,8.33,-6.6,0.82,257.42,137.37,-241.61,3
7134,7.8,-6.48,0.59,221.39,121.34,-279.29,3
7159,7.04,-7.15,0.57,182.85,84.87,-326.49,3
7183,5,-9.31,0.46,139.86,37.19,-376.91,3
7209,3.65,-11.43,0.66,87.67,-11.22,-428.13,3
7233,2,-14.72,2.46,32.85,-78.6,-474.66,3
7258,0.61,-19.02,5.76,-27.02,-172.01,-522.28,3
7282,-0.12,-19.65,10.01,-84.46,-250.37,-575.81,3
7308,-1.51,-19.65,16.46,-115.26,-307.26,-622.58,3
7333,-4.5,-19.65,19.98,-83.37,-283.23,-656.48,3
7358,-8.21,-19.65,19.98,32.91,-142.02,-654.59,3
7383,-9.92,-19.65,19.98,171.69,-42.93,-596.85,3
7408,-9.87,-19.65,19.98,224.38,-92.69,-507.34,3
7433,-10.67,-19.65,18.76,207.79,-130.06,-422.95,3
7458,-12.58,-16.67,17.22,193.22,-101.53,-349.29,3
7483,-16.41,-10.13,17.01,201.33,-75.06,-257.89,3
7508,-17.24,-6.05,16.21,237.42,-31.89,-142.95,3
7533,-15.71,-5.75,12.94,268.89,-16.77,-30.64,3
7558,-12.86,-6.89,9.16,276.88,-6.89,62.53,3
7582,-11.36,-6.58,8.05,269.25,7.74,138.75,3
7608,-11.04,-6.19,6.9,260.96,69.32,209.97,3
7633,-8.97,-8.58,5.96,245.9,80.85,286.74,3
7657,-6.75,-10.21,4.81,219.13,44.69,352.47,3
7683,-4.33,-11.54,4.82,186.51,11.46,406.19,3
7707,-2.82,-13.17,4.44,166.75,-37.69,449.91,3
7732,-2.9,-14.91,4.13,152.73,-0.49,480.64,3
7758,-0.65,-17.5,5.74,126.82,78.65,507.16,3
7782,-0.2,-18.7,6.1,98.16,54.08,529.11,3
7807,-1.33,-19.65,7.32,77.18,72.68,548.32,3
7832,-0.74,-19.65,8.99,48.04,149.51,562.16,3
7857,1.38,-19.65,10.1,9.68,156.95,570.46,3
7881,4.05,-19.65,11.7,-19.1,99.87,565.4,3
7907,8.66,-19.65,15.14,-24.04,3.84,545.15,3
7932,12.84,-19.65,16.67,14.13,-129.94,497.96,3
7956,15.62,-19.65,18.1,90.78,-178.48,373.75,3
7982,18.59,-18.52,18.52,158.77,-117.02,215.83,3
8006,16.76,-17.51,18.43,216.02,-110.98,61.92,3
8032,11.71,-18.08,18.01,275.35,-61.47,-48.87,3
8057,8.02,-18.45,16.65,335.72,-1.77,-103.01,3
8081,6.7,-18.13,14.06,390.47,48.53,-119.84,3
8107,7.5,-16.35,10.4,417.12,102.19,-123.87,3
8131,9.39,-13.04,7.41,413.95,119.87,-135.57,3
8157,10.31,-11.1,4.56,384.68,76.15,-171.49,3
8181,9.5,-9.09,1.88,337.61,83.1,-222.46,3
8206,7.54,-8.05,0.49,289.8,109.57,-263.56,3
8232,6.71,-7.21,-0.14,247.12,119.63,-300.02,3
8256,5.78,-7.35,-0.57,203.71,99.32,-336.79,3
8281,4.25,-8.09,-0.37,156.39,20.73,-371.85,3
8306,2.15,-9.18,0.05,100.66,-72.93,-398.13,3
8331,0.32,-10.27,1.62,43.83,-166.1,-412.34,3
8356,-0.89,-12.23,3.52,-8.91,-208.48,-428.74,3
8381,0.51,-13.86,6.4,-52.94,-233.36,-455.94,3
8406,-0.05,-17.25,9.81,-97.15,-340.73,-485.51,3
8430,-5.02,-19.65,12.93,-152.33,-391.52,-504.23,3
8456,-7.41,-19.65,16.09,-152.27,-73.97,-513.31,3
8480,-7.78,-19.65,19.98,-79.89,142.37,-511.12,3
8506,-8.46,-19.65,19.98,-3.49,63.17,-462.77,3
8531,-8.3,-19.65,19.98,44.13,-17.57,-423.8,3
8555,-10.38,-18.88,19.98,93.46,-52.14,-390.51,3
8581,-13.39,-15.73,19.98,147.55,-48.54,-338.32,3
8605,-15.71,-12.33,19.98,217.91,-29.7,-254.35,3
8631,-14.82,-9.36,19.98,296.57,-41.65,-155.21,3
8656,-14.49,-9.2,16.8,340.9,-103.11,-56.06,3
8680,-13.05,-9.75,12.76,364.86,-130.31,29.42,3
8706,-12.11,-10.16,8.7,372.3,-106.22,96.74,3
8730,-10.51,-10.54,5.92,366.39,-42.44,159.3,3
8756,-8.83,-10.32,3.94,344.5,-17.5,221.37,3
8781,-8,-11.11,1.84,310.29,-2.26,284.3,3
8805,-7.69,-10.9,0.91,258.64,23.65,342.53,3
8831,-5.67,-13.11,2.02,208.52,43.71,403.69,3
8855,-4.28,-12.95,1.02,147.55,12.37,448.93,3
8880,-4.25,-14.4,1.68,94.13,22.43,480.58,3
8905,-2.73,-16.69,4.44,38.52,131.82,504.48,3
8930,0.47,-17.62,8.1,-16.54,171.95,516.68,3
8955,0.14,-19.65,8.81,-50.19,81.21,523.14,3
8979,0.46,-19.65,9.85,-77.63,77.19,535.52,3
9005,4.06,-19.65,13.23,-88.73,80.36,540.15,3
9029,8.08,-19.65,16.48,-64.89,-13.85,520.52,3
9054,10.97,-19.65,18.42,5.35,-137.02,481.62,3
9080,14.99,-19.65,19.55,95.84,-132.44,382.96,3
9104,17.44,-18.69,19.42,186.51,-113.84,229.48,3
9130,15.45,-17.85,18.75,250.35,-85.06,88.88,3
9154,11.48,-17.59,17.99,305.53,-45.92,-12.71,3
9180,7.79,-17.35,16.43,362.48,17.31,-69.84,3
9204,5.32,-16.78,13.6,403.46,79.08,-87.28,3
9229,5.56,-15.31,10.5,423.03,150.18,-83.07,3
9255,8.7,-11.7,8.36,412.79,156.76,-81.49,3
9279,10.23,-9.12,4.52,378.7,114.87,-110.94,3
9304,9.73,-6.55,2.67,322.55,146.95,-162.1,3
9329,9.27,-5.16,2.5,273.09,170.18,-205.69,3
9354,8.29,-4.8,2.11,229.8,111.58,-254.84,3
9379,6.8,-5.63,1.68,184.07,80.54,-310.69,3
9404,5.03,-7.53,2.21,139.5,18.96,-360.88,3
9429,3.49,-9.91,3.82,102.49,-64.7,-409.41,3
9453,2.17,-13.07,5.48,81.27,-97.75,-463.13,3
9479,0.97,-15.96,7.61,79.74,-106.83,-520.26,3
9503,-1.72,-19.52,10.43,93.16,-141.34,-566.18,3
9528,-5.04,-19.65,13.42,116.21,-147.62,-585.26,3
9554,-8.85,-19.65,15.32,148.4,-147.81,-574.41,3
9578,-9.65,-19.65,14.73,174.07,-87.93,-545.33,3
9604,-9.28,-19.65,16.09,188.71,-47.81,-506.48,3
9628,-9.92,-19.65,18.01,194.68,-145.73,-457.09,3
9654,-15.32,-19.62,19.98,195.35,-226.77,-401.97,3
9679,-20.11,-14.95,19.98,220.35,-148.17,-320.33,3
9704,-20.6,-10.01,18.59,247.49,-77.44,-203.01,3
9729,-18.81,-7.49,16.18,265.53,-87.93,-76.37,3
9753,-16.1,-7.35,14.56,280.72,-81.95,24.3,3
9779,-13.17,-6.84,12.6,299.07,-38.48,107.84,3
9803,-12.19,-8.16,10.4,315.17,-5.86,181.98,3
9828,-10.84,-11.13,7.67,317.91,29.57,257.96,3
9854,-6.28,-13.61,5.89,297.06,14.75,335.21,3
9878,-5.17,-13.05,2.95,254.8,-83.78,377.41,3
9903,-4.3,-11.6,2.28,213.1,-86.83,398.99,3
9928,-5.19,-13.17,1.85,179.01,-23.91,426.13,3
9953,-2.85,-13.69,2.71,141.33,46.76,455.15,3
9979,-1.07,-14.27,3.23,95.6,97.13,469.6,3
10003,-1.01,-14.56,4.17,38.4,110.06,479.12,3
10028,-0.84,-17.2,5.58,-8.43,127.49,497.59,3
10053,0.15,-18.51,7.72,-53.43,154.45,510.09,3
10078,3.38,-19.65,11.47,-83.37,109.08,522.53,3
10103,7.34,-19.65,13.91,-76.11,-61.1,530.88,3
10128,10.3,-19.53,15.61,-10.68,-191.04,507.22,3
10153,14.42,-18.9,16.29,82.91,-139.21,427.16,3
10178,16.26,-19.07,16.59,155.47,-102.75,318.08,3
10203,18.19,-18.18,16.57,204.25,-92.99,198.14,3
10228,16.93,-17.13,16.34,254.07,-70.61,77.41,3
10253,14.23,-16.8,15.7,307.61,-12.99,-16.18,3
10279,11.77,-16.43,14.47,355.72,40.42,-77.83,3
10303,10.09,-15.52,12.03,393.89,103.04,-112.22,3
10329,9.99,-14.41,8.87,411.69,146.52,-130.21,3
10353,12.44,-11.98,6.22,404.43,127.68,-154.41,3
10379,12.38,-9.68,2.86,364.74,103.84,-214.23,3
10404,11.22,-7.89,0.57,311.14,182.43,-279.72,3
10428,10.57,-8.17,0.33,263.22,196.52,-328.44,3
10454,7.75,-8.64,-1.63,202.24,77.8,-376.06,3
10478,5.66,-9.68,-2.46,118.64,6.28,-419.9,3
10503,3.78,-12.44,-0.89,35.23,-68.48,-464.66,3
10528,2.42,-15.08,2.61,-32.15,-139.52,-512.34,3
10553,1.27,-18.64,7.81,-74.46,-201.77,-553.92,3
10579,-0.84,-19.65,12.64,-93.97,-223.17,-597.15,3
10603,-3.94,-19.65,19.98,-40.62,-147.14,-626.18,3
10629,-5.9,-19.65,19.98,59.68,-94.03,-614.65,3
10653,-5.35,-19.65,19.98,145.66,-88.78,-572.89,3
10678,-5.34,-19.65,18.03,168.89,-181.59,-538.13,3
10704,-8.05,-19.65,17.08,139.44,-218.9,-503.5,3
10728,-12.33,-19.65,18.44,121.33,-151.53,-461.55,3
10754,-17.49,-11.47,18.84,122.43,-97.44,-368.62,3
10778,-19.77,-4.4,19.29,139.32,-81.41,-229.23,3
10804,-19.54,-3.35,17.29,165.53,12.56,-81.18,3
10829,-15.36,-3.96,14.86,192.18,9.93,43.57,3
10854,-10.61,-5.09,13.93,210.47,-8.66,135.52,3
10879,-6.88,-6.01,13.29,242.67,-14.46,199.91,3
10903,-7.15,-8.24,11.15,273.77,-27.69,239.61,3
10929,-6.66,-11.94,9.3,294.68,-12.02,287.78,3
10953,-3.57,-12.1,6.65,287.91,8.96,335.58,3
10979,-2.78,-11.38,5.04,264.8,-45.8,368.32,3
11004,-2.77,-14.23,3.71,245.84,-47.14,401.37,3
11028,-1.36,-14.59,2.19,225.17,-8.54,423.32,3
11054,-1.24,-12.37,1.33,181.82,57.43,428.57,3
11078,-0.63,-12.9,3.02,118.04,130.24,432.84,3
11104,-0.17,-13.85,4.97,53.28,125.54,448.99,3
11129,-0.01,-15.15,6.54,13.52,50.97,477.9,3
11153,-0.33,-17.2,7.15,-12.76,50.18,500.33,3
11179,1.02,-19.65,9.75,-39.1,99.99,512.22,3
11203,5.34,-19.65,12.99,-46.72,77.07,516.8,3
11228,10.05,-19.65,15.5,-16.54,-65.8,506.74,3
11253,14.09,-19.65,16.58,51.39,-147.32,443.08,3
11278,17.33,-18,18.06,131.75,-74.21,316.07,3
11304,18.6,-17.29,19.26,195.35,-58.48,164.91,3
11328,16.46,-16.88,18.72,258.03,-55.61,32.6,3
11354,12.49,-16.98,17.68,324.44,15.97,-58.44,3
11378,8.87,-17.23,15.35,382.54,76.4,-105.45,3
11403,7.47,-16.58,13.28,427,165.42,-119.66,3
11429,8.19,-14.97,9.84,451.69,195.36,-114.42,3
11453,9.79,-11.26,6.32,436.93,155.85,-118.32,3
11479,10.17,-9.74,2.24,381.39,143.53,-154.9,3
11503,11.51,-6.37,0.96,315.47,194.69,-207.83,3
11529,10.69,-5.84,0.6,257.42,157.98,-269.41,3
11554,8.49,-6.8,-0.34,197.06,46.82,-325.02,3
11578,5.94,-8.3,-1.13,114.68,-48.66,-379.35,3
11604,3.19,-11.04,0.68,30.84,-131.59,-428.86,3
11628,1.7,-13.73,4.25,-34.77,-182.5,-468.86,3
11654,0.81,-18.02,7.93,-75.13,-174.82,-513.98,3
11678,-0.24,-19.65,11.64,-72.51,-122.02,-568.5,3
11703,-1.66,-19.65,14.46,-23.98,-54.09,-614.17,3
11729,-4.36,-19.65,17.29,37.67,-43.3,-630.32,3
11753,-7.04,-19.65,19.03,90.47,-52.26,-601.73,3
11779,-7.92,-19.65,19.7,123.71,-75.55,-542.64,3
11803,-8.31,-19.65,19.81,144.93,-136.04,-482.22,3
11829,-12.16,-19.65,19.98,149.56,-218.78,-436,3
11854,-15.62,-17.5,19.98,176.82,-140.12,-378.5,3
11879,-17.31,-11.6,19.98,244.38,-20.43,-280.82,3
11904,-17.28,-7.84,18.35,284.25,-34.39,-157.71,3
11929,-16.5,-7.77,15.05,307.67,-50,-34.96,3
11954,-13.89,-8.63,11.79,325.96,-20,70.58,3
11978,-10.71,-8.88,8.74,323.7,-14.64,154.61,3
12004,-9.47,-10.56,7,311.75,12.5,224.54,3
12029,-8.63,-12.2,5.55,294.13,32.74,286.31,3
12054,-7.52,-12.55,4.8,267.85,72.98,345.28,3
12079,-5.2,-15.22,4.15,232.12,39.57,402.29,3
12103,-4.2,-14.88,3.11,195.66,-40.37,438.87,3
12129,-4.09,-14.95,2.41,170.6,-51.59,461.37,3
12154,-4.54,-15.97,3.1,136.21,51.4,480.15,3
12178,-2.79,-18.21,6.27,90.9,203.59,501.43,3
12204,-0.48,-18.91,9.67,34.68,221.58,514.42,3
12228,-1.29,-19.65,10.61,-8.06,145.48,533.57,3
12254,0.69,-19.65,11.94,-41.29,95.24,558.69,3
12279,3.31,-19.65,14.69,-53.79,42.68,567.16,3
12303,6.93,-19.65,18.62,-30.87,-39.27,556.49,3
12329,14.54,-19.65,19.98,25.11,-108.91,517.65,3
12353,18.23,-19.65,19.98,139.07,-179.58,389.79,3
12379,18.6,-19.65,19.98,231.02,-115.13,219,3
12403,16.71,-19.65,19.98,300.53,-97.2,73.51,3
12429,12.64,-19.65,17.27,353.7,-47.87,-28.44,3
12454,8.87,-19.65,14.76,388.22,20.36,-83.81,3
12479,7.97,-18.47,12.21,410.41,51.89,-108.38,3
12504,9.16,-15.66,9.14,407.06,54.45,-123.26,3
12528,9.8,-13,6.06,388.22,16.52,-154.48,3
12554,9.21,-10.19,2.88,343.64,12.5,-204.17,3
12579,8.83,-8.75,1.22,294.62,58.84,-249.23,3
12604,8.3,-8.25,0.41,249.13,64.08,-294.29,3
12629,7.37,-8.45,-0.67,196.21,18.35,-337.95,3
12653,6.24,-9.77,-1.19,134.93,-48.54,-383.86,3
12679,4.42,-12.11,-0.64,65.9,-112.69,-428.8,3
12703,3.41,-14.9,1,-8.49,-176.41,-477.58,3
12728,2.43,-18.78,4.28,-79.71,-221.65,-529.96,3
12754,0.68,-19.65,8.32,-141.05,-275.73,-572.83,3
12778,-0.48,-19.65,12.6,-172.39,-263.66,-608.01,3
12804,-2.72,-19.65,17.88,-162.69,-240.06,-633.98,3
12828,-6.81,-19.65,19.98,-109.46,-187.81,-618.86,3
12854,-10.1,-19.65,19.98,-46.9,-181.65,-551.85,3
12879,-13.41,-19.65,19.98,2.3,-174.27,-461.55,3
12904,-14.53,-17.49,19.98,52.49,-87.44,-365.69,3
12929,-15.03,-13.04,19.98,105.29,-18.6,-274.66,3
12954,-13.86,-10.15,19.98,173.64,-25.86,-188.56,3
12979,-14.01,-8.99,19.98,248.77,-76.83,-105.09,3
13003,-12.81,-10.06,19.98,325.9,-53.24,-26.73,3
13029,-10.04,-11.2,14.97,380.65,6.09,38.57,3
13054,-8.84,-11.96,11.2,402.85,33.35,95.09,3
13079,-8.2,-13.08,8.06,402,22.31,160.58,3
13104,-8.01,-12.57,4.96,380.47,-36.22,225.52,3
13128,-7.64,-12.68,2.42,349.37,-43.36,283.39,3
13154,-6.26,-11.6,0.58,307,-7.44,331.74,3
13179,-6.13,-11.57,-0.6,254.31,29.32,372.96,3
13204,-4.7,-13.57,-0.85,189.5,144.75,410.03,3
13229,-2.17,-13.14,0.17,103.46,214.32,448.93,3
13253,-1.16,-13.46,2.07,28.04,209.69,467.23,3
13279,-1.85,-16,5.6,-57.02,258.71,472.9,3
13304,-1.08,-18.67,8.66,-119.95,217.31,484.6,3
13329,-1.46,-19.65,11.1,-156.72,158.59,514.91,3
13354,0.66,-19.65,15.1,-181.23,139.51,540.21,3
13379,5.28,-19.65,18.38,-171.29,-6.22,559.48,3
13404,10.39,-19.65,19.78,-121.35,-133.91,547.9,3
13429,16.56,-19.65,19.98,-5.81,-209.64,445.76,3
13454,18.6,-19.65,19.98,110.9,-153.11,274.24,3
13480,17.98,-18.23,19.98,192.3,-144.52,97.78,3
13504,11.43,-18.48,19.56,264.92,-120.06,-33.56,3
13529,5.8,-19.57,17.68,334.07,-28.11,-99.29,3
13554,3.64,-19.65,15.95,391.33,46.15,-108.99,3
13579,3.64,-18.3,13.66,436.14,84.32,-90.27,3
13605,4.66,-16.27,10.42,454.43,92.56,-73.62,3
13629,5,-13.96,6.92,437.54,88.96,-69.72,3
13654,5.96,-10.76,4.64,408.28,100.18,-74.35,3
13679,7.22,-7.75,3.24,362.24,115.73,-92.22,3
13704,8.25,-5.81,2.07,317.55,85.18,-127.95,3
13728,8.88,-5.1,1.6,268.83,97.19,-178.07,3
13754,8.22,-5.07,1.08,228.16,54.39,-233.74,3
13779,7.6,-6,1.1,184.5,0.36,-301.18,3
13803,5.86,-8.8,1.5,139.93,-75.25,-366.3,3
13829,3.62,-12.05,2.65,93.95,-143.36,-421.67,3
13853,2.01,-14.64,4.59,56.33,-172.5,-476.3,3
13879,0.08,-17.73,7.06,42.55,-151.28,-529.72,3
13904,-2.37,-19.65,10.11,66.02,-84.15,-580.57,3
13928,-5.77,-19.65,13.58,122.18,-60.8,-612.95,3
13954,-10.99,-19.65,17.2,196.45,-74.21,-600.51,3
13978,-15.8,-19.65,19.98,255.84,-160.55,-548.37,3
14004,-20.6,-19.65,19.98,292.3,-221.89,-481.18,3
14029,-18.41,-19.65,19.98,322,-131.16,-402.95,3
14054,-19.25,-19.65,19.98,328.46,-180.06,-326.12,3
14079,-20.6,-19.17,19.54,314.07,-224.09,-258.44,3
14104,-20.6,-12.76,18.18,316.2,-125.37,-177.16,3
14130,-20.56,-10.07,15.19,331.45,-47.81,-66.73,3
14154,-17.57,-7.78,11.45,334.25,-106.1,32.9,3
14179,-15.29,-7.2,8.29,329.31,-94.52,111.13,3
14205,-13.22,-7.94,5.66,315.66,-40.49,179.24,3
14229,-10.39,-8.21,4.06,291.27,-21.77,246.92,3
14255,-9.7,-8.47,2.3,248.52,-20.43,304.73,3
14279,-7.89,-10.28,2.43,206.39,0.48,361.92,3
14304,-6.69,-10,1.61,165.35,-0.43,414.42,3
14330,-5.55,-11.25,1.54,125.05,41.28,452.65,3
14354,-2.64,-13.83,2.83,71.57,106.28,484.97,3
14379,-3.22,-14.31,2.96,15.72,92.98,510.94,3
14404,-2.13,-16.78,5.6,-35.93,143.84,530.76,3
14429,-1.99,-19.65,7.8,-86.11,192.8,540.15,3
14455,-1.34,-19.65,9.66,-133.73,192.8,543.87,3
14479,0.98,-19.65,12.79,-175.07,155.79,554.79,3
14504,4.12,-19.65,15.28,-174.83,-51.83,572.71,3
14529,8.81,-19.65,17.88,-105.56,-177.26,569.54,3
14554,14.19,-19.65,19.98,22,-193.3,472.9,3
14579,18.32,-19.65,19.98,118.4,-124.03,313.63,3
14604,16.79,-18.7,19.98,198.95,-126.77,148.57,3
14630,11.99,-18,19.26,275.17,-74.45,16.92,3
14654,6.61,-18.96,17.72,343.7,31.58,-56,3
14680,4.07,-19.56,16.23,400.65,109.02,-70.39,3
14704,4.05,-18.56,14.02,443.7,158.71,-48.87,3
14730,3.72,-17.03,11.29,457.24,185.54,-21.79,3
14755,7.01,-14.31,9.78,446.26,157.19,-6,3
14779,8.99,-10.77,7.03,417.54,118.23,-35.94,3
14805,8.8,-7.32,4.04,369.25,162.01,-94.48,3
14829,9.23,-6.36,3.44,332.12,152.8,-149.05,3
14854,8.67,-5.79,3.19,295.29,127.43,-211.98,3
14879,7.22,-6.8,2.11,261.02,68.1,-279.17,3
14904,5.66,-8.89,1.13,220.17,2.31,-339.41,3
14929,3.49,-11.47,1.03,170.35,-84.52,-393.01,3
14954,1.34,-14.34,2.94,116.14,-175.8,-437.09,3
14979,-0.6,-15.7,5.87,80.05,-228.66,-477.16,3
15004,-1.91,-18.94,10.35,71.76,-243.17,-521.85,3
15029,-5.42,-19.65,15.13,105.54,-186.22,-563.74,3
15055,-9.88,-19.65,17.54,177.79,-101.77,-568.5,3
15079,-12,-19.65,18.63,237,-129.21,-531.67,3
15105,-15,-19.65,19.98,253.64,-266.28,-482.64,3
15129,-16.97,-19.65,19.98,258.7,-317.26,-446.79,3
15155,-19.11,-19.65,19.98,271.75,-215.86,-395.33,3
15179,-20.25,-16.94,19.98,278.4,-134.64,-305.08,3
15205,-20.6,-11.55,18.48,277.61,-134.7,-194.05,3
15230,-20.13,-7.42,16.49,283.7,-135.12,-85.45,3
15255,-16.99,-6.43,13.83,294.8,-83.05,11.74,3
15280,-13.72,-5.96,11.57,297.3,-89.76,90.7,3
15305,-12.16,-6.51,9.56,302.73,-73.42,157.59,3
15330,-10.07,-7.83,6.59,304.37,-75.74,224.18,3
15355,-7.42,-8.63,4.78,299.01,-55.49,282.17,3
15380,-6.52,-9.91,3.21,265.96,-42.02,334.36,3
15405,-5.29,-10.07,1.85,227.36,-5.92,378.14,3
15429,-4.3,-12.64,1.99,183.16,51.95,419.73,3
15455,-3.59,-13.28,1.91,130.29,71.58,454.79,3
15480,-2.94,-13.9,3.11,77.06,71.03,480.27,3
15504,-1.72,-17.41,4.88,36.39,115.73,501.62,3
15530,0.42,-18.14,6.16,-4.4,156.15,513.2,3
15554,0.12,-19.55,6.99,-52.02,146.21,511.43,3
15580,0.37,-19.65,10.83,-92.39,154.99,520.88,3
15604,5.94,-19.65,14.73,-103.06,61.46,531.68,3
15629,6.52,-19.65,16.65,-52.63,-144.82,519.66,3
15655,10.93,-19.65,18.08,30.11,-154.27,463.81,3
15679,14.3,-19.65,19.02,119.68,-169.94,357.71,3
15705,16.16,-18.89,18.16,196.21,-179.82,210.15,3
15729,13.24,-18.19,17.01,254.5,-107.69,68.33,3
15755,8.76,-18.29,15.8,307.97,-67.14,-20.57,3
15780,5.35,-18.57,14.2,358.83,4.45,-60.94,3
15805,4.4,-18.55,12.53,392.12,60.24,-66.12,3
15830,6.02,-16.49,11.86,403.58,95.91,-61.37,3
15854,8.58,-13.14,10.13,407.06,80.6,-68.68,3
15880,9.3,-11.25,7.27,391.69,35.54,-99.17,3
15904,9.37,-8.51,5.07,352.61,47.31,-151.12,3
15930,9.32,-7.1,3.48,319.68,66.09,-198.99,3
15955,7.41,-6.15,1.6,281.57,79.14,-247.77,3
15979,6.58,-6.11,1.31,245.78,73.71,-291.79,3
16005,5.4,-6.63,0.67,216.33,76.21,-332.77,3
16029,3.93,-7.64,0.1,186.27,47.8,-374.41,3
16054,2.72,-10.18,0.05,150.17,-1.04,-413.68,3
16080,1.18,-11.93,0.82,109.19,-72.5,-452.95,3
16104,-1.23,-14.24,3.21,68.65,-161.47,-482.34,3
16129,-4.55,-17.04,6.03,39.32,-198.72,-503.5,3
16154,-8.75,-18.73,9.71,40.41,-128.84,-525.63,3
16179,-11.21,-16.92,14.88,89.13,-57.99,-513.56,3
16205,-15.76,-16.93,17.6,138.71,-130.13,-453.68,3
16229,-15.93,-18.08,17.69,165.72,-197.2,-384.23,3
16255,-13.03,-18.11,16.32,180.66,-153.91,-347.03,3
16279,-12.26,-19.65,15.07,162.36,-226.34,-328.19,3
16305,-13.62,-18,18.24,123.83,-282.44,-316.91,3
16329,-18.23,-14.9,19.98,138.16,-227.32,-276.3,3
16355,-16.65,-10.22,19.98,179.86,-182.2,-210.82,3
16380,-16.7,-9.18,19.98,234.62,-172.99,-131.18,3
16405,-14.84,-8.37,17.25,287.36,-158.36,-60.57,3
16430,-12.59,-8.2,13.18,316.26,-110.86,3.94,3
16455,-10.51,-8.24,10.37,327.79,-83.6,66.56,3
16480,-9.65,-8.76,7.91,333.4,-116.65,124.36,3
16506,-8.34,-8.83,5.99,335.29,-75.8,172.66,3
16530,-6.82,-8.88,3.95,319.62,19.69,220.7,3
16555,-5.11,-10.27,2.28,281.39,25.06,272.29,3
16580,-4.66,-8.9,0.9,236.33,-21.77,315.89,3
16605,-4.66,-9.41,0.26,195.72,15.36,352.65,3
16629,-3.06,-10.88,0.38,144.19,99.08,384.73,3
16655,-1.77,-10.65,0.74,75.05,110.12,409.12,3
16680,-1.5,-12.64,2.75,24.44,35.61,432.96,3
16704,-1.08,-14.14,4.59,-0.81,56.28,453.44,3
16730,-1.42,-16.19,6.41,-22.15,94.63,466.19,3
16754,-0.89,-19.03,8.76,-42.82,103.78,486.43,3
16779,-0.07,-19.65,11.42,-55.99,85.36,507.71,3
16805,3.15,-19.65,14.02,-49.71,12.13,526.86,3
16829,6.61,-19.65,15.84,-16.05,-100.13,526.74,3
16855,12.79,-19.65,17.41,43.4,-143.17,479.73,3
16879,16.41,-19.65,18.5,132.61,-192.87,359.73,3
16905,18.45,-19.65,17.99,210.35,-164.33,201.56,3
16930,14.52,-19.43,16.62,271.08,-127.2,59.79,3
16955,10.21,-19.64,15.66,327.12,-56.1,-29.72,3
16980,7.07,-19.59,14.38,380.47,15.18,-69.42,3
17004,6.22,-18.8,12.01,418.34,67.56,-74.54,3
17030,6.7,-16.95,9.57,426.32,86.76,-71.55,3
17054,8.8,-13.39,7.28,409.25,51.46,-80.09,3
17080,9.64,-10.28,4.84,371.33,27.98,-118.56,3
17105,10.23,-7.68,3.02,329.68,82.74,-174.84,3
17129,9.51,-6.45,2.33,293.4,124.32,-228.07,3
17155,8.08,-6.38,2.33,264.86,105.79,-275.39,3
17179,6.05,-7.18,1.49,238.89,86.03,-319.72,3
17204,4.04,-8,0.79,209.07,76.95,-351.79,3
17230,2.68,-8.76,0.76,176.21,37.86,-377.77,3
17254,0.88,-10.56,1.12,142.79,-27.44,-400.33,3
17279,-0.76,-11.58,2.03,111.27,-85.06,-416.73,3
17304,-1.65,-14.51,3.45,79.26,-119.33,-441.91,3
17329,-1.68,-16.9,6.33,50.11,-166.16,-481.3,3
17354,-3.7,-19.1,9.68,28.22,-229.09,-521.3,3
17379,-7.49,-19.65,14.79,39.19,-222.81,-544.84,3
17405,-11.31,-19.65,18.26,80.23,-151.16,-542.28,3
17429,-14.32,-19.65,19,130.6,-93.24,-505.51,3
17455,-14.6,-19.65,18.9,159.38,-96.95,-443.68,3
17479,-14.95,-19.65,19.89,163.71,-160.73,-380.94,3
17505,-16.83,-18.41,19.98,168.58,-151.65,-321.67,3
17530,-18.07,-14.54,19.98,197.67,-99.7,-252.34,3
17555,-18.13,-11.3,19.98,238.77,-108.17,-169.78,3
17580,-17.09,-10.16,19.29,282.55,-81.65,-84.42,3
17605,-15.56,-10.01,16.31,317.61,-93.17,-4.66,3
17630,-13.96,-9.88,13.32,343.09,-77.08,63.75,3
17655,-11.41,-10.53,10.23,353.95,-63.72,131.01,3
17680,-9.69,-10.43,7.27,350.53,-82.56,190.7,3
17705,-8.55,-10.79,4.94,332.79,-45.86,242.41,3
17730,-7.22,-10.23,3.53,302.3,25.42,292.96,3
17755,-6.83,-12.43,2.55,264.98,26.28,347.9,3
17779,-4.3,-13.26,1.79,221.75,26.64,394.36,3
17805,-2.67,-12.2,1.43,165.29,52.62,420.09,3
17830,-2.24,-12.74,2.56,112.73,56.89,438.2,3
17855,-2.38,-14.07,4.22,72.85,84.26,458.57,3
17880,-1.27,-15.18,7.05,45.72,159.38,478.93,3
17904,-0.79,-17.05,9.23,23.4,185.48,491.98,3
17930,-2.58,-19.65,10.28,-8.67,210.66,506.25,3
17955,0.48,-19.65,13.12,-43,269.44,522.47,3
17980,4.11,-19.65,15.51,-82.39,181.88,526.8,3
18005,5.7,-19.65,16.09,-81.84,-82.02,529.05,3
18029,10.44,-19.65,18.67,-21.11,-180.31,477.35,3
18055,14.37,-19.01,19.37,69.5,-116.65,358.32,3
18079,15.61,-17.91,19.66,124.5,-98.78,231.19,3
18105,13.61,-16.53,18.96,184.07,-122.56,116.31,3
18130,10.36,-16.38,17.33,243.77,-43.91,35.16,3
18155,8.19,-16.4,15.45,290.66,7.56,-6.98,3
18180,9.12,-15.29,13.94,319.13,41.09,-29.54,3
18204,11.01,-12.91,11.74,335.23,35.97,-63.68,3
18230,12.61,-10.88,9.67,339.68,39.32,-123.13,3
18255,12.07,-9.7,7.27,329.74,77.01,-191.12,3
18280,10.57,-9.56,5.36,318.09,125.36,-255.51,3
18305,8.51,-9.71,3.57,308.22,171.4,-300.63,3
18330,6.84,-9.22,2.03,294.56,178.96,-330.69,3
18355,5.98,-9.31,0.43,260.35,126.46,-346.79,3
18379,4.88,-8.79,-1.03,210.6,65.3,-361,3
18405,3.8,-9.85,-0.38,156.63,-24.09,-384.17,3
18430,1.93,-11.79,0.77,107.79,-88.05,-420.14,3
18454,1.17,-13.87,3.51,79.8,-49.33,-468.38,3
18480,0.28,-17.04,7.5,82.24,-64.94,-509.11,3
18504,-2.69,-19.65,10.87,93.34,-125.19,-533.25,3
18529,-7,-19.65,13.73,114.32,-147.38,-532.03,3
18555,-9.89,-19.65,14.75,144.38,-80.25,-500.81,3
18579,-9.52,-19.65,14,174.38,-6.47,-455.69,3
18605,-9.45,-19.65,13.5,181.63,-43.85,-427.77,3
18629,-11.54,-19.65,16.24,177,-173.54,-409.41,3
18655,-17.38,-18.84,18.97,179.92,-228.9,-372.64,3
18680,-20.12,-15.4,19.98,225.11,-63.91,-290.57,3
18705,-18.86,-12.66,19.98,277.73,30.79,-184.9,3
18730,-19.13,-10.77,18.12,297.42,-69.03,-79.72,3
18755,-18.03,-10.82,16.56,323.95,-89.88,17.6,3
18780,-15.8,-10.18,14.04,351.69,-21.53,100.22,3
18805,-13.66,-11.83,10.97,356.39,-56.22,179.48,3
18830,-11.46,-11.07,8.19,349.62,-57.87,244.61,3
18856,-10.9,-11.82,5.24,331.33,-42.38,296.92,3
18880,-9.08,-13.28,3.28,304.86,-4.64,346.74,3
18905,-6.46,-12.45,2.05,260.78,25.61,390.21,3
18930,-4.15,-12.32,0.76,211.51,-32.5,420.46,3
18955,-3.69,-11.49,-0.65,164.5,-13.36,441.25,3
18981,-3.06,-11.7,-0.13,109.93,79.02,457.29,3
19005,-2.99,-13.39,1.2,45.66,141.46,469.36,3
19030,-0.11,-14.27,4.25,-9.04,97.31,484.54,3
19055,-0.98,-16.43,5.81,-35.13,49.75,506.31,3
19080,-1.43,-19.14,6.64,-51.72,86.58,522.47,3
19104,-1.5,-19.65,8.93,-78.3,139.2,528.08,3
19130,0.7,-19.65,12.51,-111.41,148.35,532.77,3
19155,4.98,-19.65,16.06,-111.72,6.95,547.41,3
19180,10.1,-19.65,17.54,-69.4,-157.93,537.29,3
19205,16.41,-19.65,19.59,34.62,-275.31,435.46,3
19230,18.6,-19.65,17.8,143.46,-259.15,258.93,3
19255,16.29,-19.6,16.29,208.64,-170.98,82.78,3
19281,9.69,-19.65,14.44,268.4,-158.6,-30.39,3
19305,5.93,-19.65,12.99,324.62,-57.63,-85.15,3
19330,5.74,-19.65,12,372.79,18.17,-91.73,3
19355,6.61,-19.5,10.43,393.64,64.39,-92.1,3
19380,9.33,-16.93,9.18,393.64,43.9,-107.1,3
19406,9.88,-13.74,7.91,375.72,39.75,-144.05,3
19430,10.56,-11.24,5.94,351.94,47.25,-192.28,3
19455,10.39,-9.51,4.47,323.83,49.32,-245.02,3
19480,8.61,-8.95,2.91,293.09,93.84,-294.17,3
19505,7.29,-9.16,2.25,267,109.26,-338.56,3
19529,6.51,-9.59,1.32,247.18,117.37,-383.13,3
19555,4.87,-10.39,0.64,232.79,149.69,-417.52,3
19580,3.6,-11.78,-0.05,216.02,124.63,-442.03,3
19605,2.05,-13.75,0.1,186.75,43.84,-462.4,3
19630,0.46,-15.94,0.9,149.07,-44.33,-487.16,3
19654,-1.7,-17.87,3.35,123.71,-88.36,-512.89,3
19680,-3.68,-19.57,6.42,124.93,-53.05,-539.23,3
19705,-5.69,-19.65,10.16,161.63,-22.38,-550.08,3
19730,-9.6,-19.65,12.58,220.23,-17.57,-533.25,3
19755,-11.1,-19.65,14.01,272.55,-42.99,-490.57,3
19780,-12.58,-19.65,15.12,284.86,-135.67,-440.08,3
19805,-15.36,-19.65,18.41,293.77,-186.77,-397.46,3
19831,-17.45,-19.65,19.85,313.58,-177.08,-346.3,3
19855,-20.6,-19.65,18.73,320.84,-188.72,-279.66,3
19881,-20.6,-15.85,18.16,327.24,-127.5,-193.32,3
19905,-20.6,-13.26,16.88,338.34,-41.83,-85.7,3
19931,-18.05,-11.98,13.95,341.87,-51.96,22.11,3
19955,-14.94,-11.07,12.07,339.74,-84.82,105.28,3
19981,-11.69,-11.36,10.14,342.36,-109.82,167.47,3
20006,-9.63,-10.67,8.01,337.42,-92.56,205.22,3
20031,-8.78,-10.19,6.11,323.22,-35.06,245.03,3
20056,-8.41,-10.03,4.67,296.33,44.81,291.5,3
20080,-5.73,-12.14,4.44,261.63,49.32,347.47,3
20106,-4.37,-10.52,2.64,222.3,-35.43,390.4,3
20131,-4.58,-10.16,1.59,189.8,-30.13,412.29,3
20156,-4.41,-12.25,1.19,153.46,56.52,432.59,3
20181,-2.49,-12.09,2.44,101.27,134.02,460.7,3
20206,-2.16,-14.58,3.92,51.39,143.59,491.19,3
20231,-1.06,-18.07,5.61,4.62,177.86,512.1,3
20255,0.52,-17.88,6.93,-37.45,175.42,514.66,3
20281,-1.42,-19.65,8.49,-78.37,185.18,511.07,3
20306,-1.26,-19.65,11.52,-116.35,223.96,519.97,3
20331,3.42,-19.65,14.53,-151.54,82.62,530.94,3
20356,5.84,-19.65,16.37,-129.04,-158.72,529.6,3
20380,11.77,-19.65,18.01,-64.04,-203.3,475.64,3
20406,14.91,-19.65,18.92,20.11,-217.93,353.93,3
20431,15.47,-18.63,18.85,82.61,-235.43,212.35,3
20456,12.01,-16.93,18.17,148.89,-228.29,85.46,3
20481,7.07,-17.76,16.65,224.56,-141.89,-4.9,3
20506,5.55,-19.65,15.82,311.57,-38.54,-40.7,3
20531,6.19,-19.65,13.76,380.78,22.98,-51.67,3
20557,8.77,-19.65,11.43,423.34,67.43,-71.06,3
20581,9.5,-19.13,9.64,423.95,64.69,-104.11,3
20606,10.71,-16.51,8.26,404.07,94.93,-144.96,3
20631,10.42,-13.93,5.89,381.2,81.09,-185.33,3
20656,9.06,-11.93,3.93,349.74,99.14,-232.28,3
20681,9.61,-10.34,3.49,316.08,193.84,-263.5,3
20706,6.99,-9.49,1.51,290.96,109.81,-293.25,3
20731,6.05,-8.99,1.16,259.44,117.25,-327.28,3
20756,4.85,-9.34,0.99,227.24,75.12,-356.73,3
20781,3.34,-10.65,1.25,188.22,-41.04,-380.39,3
20806,1.42,-11.58,1.46,139.01,-130.86,-405.33,3
20831,0.45,-12.75,3.24,95.17,-177.44,-437.52,3
20856,-2.24,-15.05,4.42,68.71,-153.84,-474.72,3
20881,-2.83,-18.21,6.92,77.24,-39.27,-517.64,3
20906,-3.4,-19.65,8.54,115.47,31.76,-552.03,3
20931,-5.41,-19.65,10.18,153.52,20.18,-563.37,3
20956,-8.7,-19.65,12.53,186.81,-50.19,-551.12,3
20980,-12.79,-19.65,15.37,218.83,-83.78,-519.84,3
21006,-15.12,-19.65,18.05,246.08,-122.99,-461.97,3
21031,-18.06,-19.65,19.98,272.73,-144.52,-394.11,3
21056,-20.6,-19.65,19.98,304.8,-159.94,-309.66,3
21082,-20.59,-18.27,19.14,320.59,-154.82,-218.38,3
21106,-19.73,-16.01,17.48,328.95,-123.97,-128.44,3
21132,-18.04,-12.78,15.56,336.63,-104.64,-40.7,3
21157,-15.39,-10.64,13.31,344.13,-63.17,32.29,3
21182,-12.21,-9.72,10.62,343.28,-52.14,100.34,3
21207,-10.15,-9.11,7.7,328.58,-66.28,158.39,3
21231,-9.54,-8.72,6.08,308.28,-66.22,205.58,3
21257,-7.86,-8.42,4.4,286.94,-27.26,253.81,3
21282,-5.68,-8.2,3.38,253.77,28.84,298.08,3
21306,-4.92,-8.18,2.34,208.16,14.81,331.86,3
21332,-4.43,-8.98,2.15,166.14,8.84,364.06,3
21356,-2.47,-8.77,2.27,134.44,32.07,392.23,3
21381,-1.96,-9.52,2.22,97.55,63.47,413.63,3
21406,-1.74,-10.5,2.35,60.66,74.57,431.92,3
21431,-1.92,-13.09,3.82,20.11,169.32,453.2,3
21456,-1.34,-16.09,5.7,-31.78,265.18,472.59,3
21481,-1.86,-19.3,7.03,-94.4,290.3,479.42,3
21506,-2.27,-19.65,8.66,-160.93,255.85,490.09,3
21531,3.14,-19.65,11.51,-221.29,117.43,507.77,3
21556,5.64,-19.65,12.93,-212.82,-164.76,517.35,3
21582,3.92,-19.65,14.32,-148.06,-217.38,488.63,3
21606,11.72,-19.65,19.18,-63.67,-105.67,410.27,3
21632,12.14,-19.27,19.7,20.9,-201.28,310.15,3
21656,12.59,-17.39,19.56,120.66,-186.77,193.69,3
21682,10.02,-16.82,18.32,201.14,-92.75,91.86,3
21706,6.94,-17.57,17.03,267.91,-66.22,28.88,3
21731,4.95,-17.67,15.94,320.53,5.67,-5.64,3
21757,4.3,-17.21,14.72,362.91,51.21,-14.6,3
21781,5.07,-15.96,13.39,386.26,88.23,-13.32,3
21806,6.57,-13.89,11.85,394.62,86.82,-17.53,3
21831,7.59,-11.64,9.63,386.33,64.02,-35.88,3
21856,8.15,-9.19,7.34,361.75,61.28,-75.21,3
21882,7.96,-6.8,5.81,336.02,123.59,-115.88,3
21906,7.59,-5.43,4.69,314.01,136.09,-149.48,3
21931,7.09,-4.71,3.68,291.45,118.23,-186.79,3
21956,6.05,-4.8,2.7,264.13,122.62,-223.56,3
21981,5.46,-4.68,2.45,238.77,102.92,-263.62,3
22005,4.18,-6.02,2.31,216.75,56.28,-299.29,3
22031,2.65,-7.38,2.54,199.99,4.63,-331,3
22056,1.8,-9.28,2.74,189.38,-46.41,-369.53,3
22080,0.67,-11.06,2.68,178.95,-59.03,-408.99,3
22106,-0.9,-14.02,3.58,171.14,-73.54,-446.79,3
22130,-3,-18.14,4.95,167.42,-72.26,-485.27,3
22156,-5.91,-19.65,8.16,187.36,-47.14,-517.64,3
22181,-9.53,-19.65,8.7,255.96,67.07,-525.14,3
22205,-8.96,-19.65,8.73,338.64,132.62,-511.42,3
22231,-12.42,-19.65,7.92,344.92,-33.97,-461.36,3
22255,-16.56,-19.65,9.76,314.8,-223.9,-400.94,3
22281,-19.68,-19.65,11.06,290.53,-174.09,-344.72,3
22306,-20.28,-19.65,11.75,270.96,-134.21,-256.24,3
22331,-20.6,-16.5,12.91,242.49,-179.09,-162.95,3
22356,-20.6,-12.13,13.56,237.42,-133.42,-70.09,3
22381,-18.36,-8.65,14.49,241.57,-110.73,21.86,3
22406,-14.51,-7.93,15.1,267.85,-99.09,98.63,3
22431,-10.35,-8.36,13.38,299.19,-66.89,151.86,3
22456,-9.01,-9.2,11.17,323.28,-56.95,192.65,3
22482,-8.37,-11.24,8.09,335.41,-48.66,236.86,3
22506,-7.06,-12.2,4.81,324.86,-68.11,280.58,3
22531,-5.92,-11.17,2.96,296.02,-54.64,312.59,3
22556,-5.43,-11.07,1.7,253.95,-7.5,337.53,3
22581,-4,-11.03,1.34,204.31,4.87,360.88,3
22606,-4.42,-10.11,0.55,155.72,0.36,382.29,3
22631,-4.03,-10.45,0.6,105.78,76.46,401.86,3
22656,-3.06,-10.72,1.3,44.87,167.74,415.27,3
22681,-2.83,-12.59,2.37,-23.49,207.49,424.85,3
22706,-2.66,-13.4,4.43,-97.76,234.26,428.02,3
22730,-3.2,-16.19,6.53,-170.86,241.82,430.09,3
22756,-2.69,-19.65,8.95,-239.34,173.29,443.57,3
22781,-0.42,-19.65,11.47,-286.9,34.14,469.3,3
22806,2.39,-19.65,14.89,-279.16,-181.4,505.82,3
22831,4.1,-19.65,17.58,-209.52,-230.49,518.26,3
22856,10.28,-19.65,19.98,-104.04,-187.44,486.98,3
22881,14.71,-19.65,19.98,15.48,-228.66,401.98,3
22907,14.39,-19.65,19.92,147.36,-219.27,275.4,3
22931,13.45,-18.23,16.91,237.91,-122.14,147.23,3
22957,10.75,-18.06,15.05,297.97,-65.13,46.5,3
22981,7.82,-18.06,13.03,337.91,-7.81,-11.43,3
23006,6.27,-17.16,11.57,365.78,63.71,-37.4,3
23032,6.94,-15.63,10.61,382.36,120.36,-47.16,3
23056,8.57,-13.38,9.29,381.26,121.88,-56.12,3
23082,10.46,-10.74,8.13,369.68,115.97,-86,3
23106,10.83,-8.48,6.41,356.94,125.12,-141.06,3
23132,10.26,-7.3,5.13,338.64,145.91,-200.88,3
23156,8.67,-7.12,3.51,323.16,186.7,-254.17,3
23181,7.35,-7.41,2.55,311.87,214.87,-292.89,3
23207,6.12,-8.66,1.47,296.94,182.13,-328.38,3
23231,5.25,-10.39,0.07,271.08,134.81,-367.95,3
23257,4.07,-13.07,0.22,230.05,13.11,-413.19,3
23281,1.59,-16.45,1.81,180.9,-130,-458.86,3
23306,-1.17,-18.88,4.36,137.43,-196.59,-497.34,3
23332,-4.51,-19.65,8.05,134.86,-123.91,-531.36,3
23356,-6.92,-19.65,11.59,193.34,-4.58,-545.75,3
23382,-10.56,-19.65,12.44,269.01,84.57,-520.87,3
23406,-10.32,-19.65,10.98,311.45,45.91,-461.79,3
23432,-10.16,-19.65,11.25,310.66,-101.71,-407.89,3
23456,-13.76,-19.65,12.05,293.4,-165.25,-379.9,3
23482,-16.51,-19.65,13.04,290.66,-113.6,-334.35,3
23507,-19.55,-17.41,14.24,294.92,-85.19,-260.27,3
23532,-20.6,-14.16,13.49,296.27,-115.61,-158.32,3
23557,-20.6,-11.2,12.33,290.29,-144.64,-52.16,3
23582,-19.48,-9.54,11.93,292.18,-125.8,40.77,3
23607,-16.17,-8.4,10.99,293.09,-121.77,120.83,3
23633,-13.92,-8.42,9.85,299.01,-71.59,191.86,3
23657,-11.52,-9.53,7.72,297.18,-88.91,259.3,3
23683,-8.93,-11.57,5.38,284.56,-119.45,311.74,3
23707,-6.45,-10.61,3.51,257.97,-89.21,342.65,3
23732,-6.41,-10.77,2.65,220.53,-22.87,366.07,3
23758,-5.52,-12.18,2.52,176.94,7.98,402.77,3
23782,-3.76,-12.84,2.42,127.06,5.79,436.01,3
23808,-2.82,-13.2,2.32,72.79,15.91,456.98,3
23832,-2.82,-14.54,3.84,29.44,50.79,473.63,3
23857,-2.21,-18.02,5.99,-11.11,132.49,490.27,3
23882,-0.5,-17.66,7.1,-50.01,132.13,498.02,3
23907,-1.67,-19.25,7.3,-88.55,90.67,501.92,3
23932,-2.39,-19.65,9.15,-119.83,100.6,512.96,3
23957,1.2,-19.65,12.95,-141.47,54.08,519.72,3
23982,3.8,-19.65,15.35,-122.39,-111.95,521.43,3
24007,7.18,-19.65,17.18,-61.35,-189.09,495.21,3
24032,12.06,-19.65,18.68,19.93,-179.88,408.26,3
24058,14.74,-17.83,19.52,97.55,-193.66,276.92,3
24082,13.87,-16.73,19.23,175.35,-160.92,142.66,3
24108,9.87,-17.46,17.83,243.4,-102.99,37.47,3
24132,6.58,-17.95,16.21,302.42,-31.83,-21,3
24157,4.9,-18.27,14.78,351.14,24.2,-43.01,3
24183,5.83,-17.17,13.43,388.7,84.75,-44.96,3
24207,7.21,-15.29,11.52,407.06,103.47,-50.7,3
24233,8.67,-12.63,9.35,408.09,96.46,-67.16,3
24257,9.48,-10.8,6.97,394.5,83.29,-107.65,3
24282,10.2,-8.67,4.72,372.18,110.06,-163.07,3
24307,9.72,-7.76,2.97,348.28,164.26,-218.32,3
24332,8.38,-8.37,1.9,323.52,182.8,-266.55,3
24358,7.81,-8.25,0.88,294.5,176.76,-310.94,3
24382,7.41,-9.57,0.11,262.73,112.25,-351.43,3
24407,5.9,-11.87,-0.17,212.79,-35.61,-395.51,3
24432,2.96,-15.51,0.7,141.27,-182.08,-437.7,3
24457,1.37,-17.71,4.05,66.39,-265.31,-474.9,3
24483,-0.89,-19.65,8.2,23.77,-255.18,-518.37,3
24507,-2.68,-19.65,12.05,52.79,-113.42,-562.09,3
24532,-4.35,-19.65,13.63,137.12,23.84,-585.63,3
24557,-5.03,-19.65,13.4,214.86,10.42,-579.29,3
24582,-8.56,-19.65,12.24,239.56,-45.43,-562.7,3
24607,-10.19,-19.65,14.25,244.62,-34.15,-531.24,3
24632,-15.52,-19.65,16.18,242,-127.93,-469.47,3
24658,-20.3,-19.65,17.87,240.66,-145.67,-387.4,3
24682,-20.6,-18.55,17.46,256.2,-58.6,-278.38,3
24708,-20.6,-12.83,16.99,263.89,-58.24,-148.44,3
24732,-20.6,-10.35,16.97,279.25,-57.5,-17.77,3
24758,-15.97,-10.47,16.05,304.31,-57.99,81.01,3
24783,-10.89,-10.69,14.09,323.76,-47.99,150.77,3
24808,-7.72,-10.08,12.63,339.56,-50.67,196.98,3
24833,-6.3,-12.1,10.25,352.73,-56.77,235.83,3
24858,-5.18,-12.27,7.38,351.51,-84.94,269,3
24883,-5.62,-11.79,5.14,337.61,-71.71,293.39,3
24907,-4.67,-11.39,3.66,315.66,-3.91,327.41,3
24933,-4.72,-13.6,1.88,278.64,-28.24,368.02,3
24958,-4.15,-10.26,0.62,230.17,7.98,394.91,3
24982,-4.2,-12.11,1.31,175.41,105.73,419.06,3
25008,-2.66,-13.15,3.59,112.18,190.18,443.81,3
25032,-2,-15.31,7.13,63.34,139.45,477.59,3
25058,-3.43,-15.3,8.57,42.55,123.47,507.04,3
25083,-3.29,-18.61,10.35,24.62,188.16,531.13,3
25108,-3.82,-19.65,12.7,2.43,174.51,552.96,3
25133,-3.37,-19.65,13.38,-2.82,146.03,584.24,3
25157,1.97,-19.65,13.38,-14.34,163.65,590.15,3
25183,11.87,-19.65,15.81,-42.69,136.09,561.31,3
25208,13.26,-19.65,15.5,-49.89,-100.67,496.37,3
25233,16.94,-18.3,16.66,-31.05,-188.84,362.41,3
25258,16.44,-14.11,16.67,7.37,-140.49,201.44,3
25283,11.96,-13.78,17.28,49.13,-130.06,61.99,3
25308,6.52,-15,17.37,101.15,-90.86,-18.56,3
25332,4.01,-15.66,17.07,165.11,-21.59,-43.99,3
25358,4.65,-16.1,16.23,230.29,13.53,-40.39,3
25383,8.28,-14.21,14.7,282.79,21.21,-61.37,3
25408,10.23,-13.4,13.22,321.39,43.9,-103.26,3
25433,11.34,-12.96,11.29,349.13,74.57,-155.15,3
25458,10.6,-12.65,9.19,357.61,97.74,-207.46,3
25483,9.23,-12.42,6.89,355.23,121.4,-252.34,3
25509,8.44,-12.13,5.07,349.01,180.91,-296.12,3
25533,7.17,-11.99,3.23,351.57,271.76,-336,3
25558,5.39,-11.81,1.64,353.28,322.86,-348.25,3
25583,5.3,-11.93,-0.56,331.45,283.35,-342.89,3
25608,4.98,-10.78,-2.08,280.59,162.8,-345.94,3
25634,4.02,-11.26,-2.18,205.6,-56.1,-368.38,3
25658,1.21,-13.04,1.61,124.19,-263.42,-396.73,3
25684,-0.85,-14.57,5.83,75.84,-229.7,-429.11,3
25708,-1.37,-15.76,9.19,101.15,-92.93,-474.41,3
25733,-1.48,-19.38,10.69,164.01,25.12,-513.86,3
25758,-4.35,-19.65,11.26,209.19,37.07,-518.92,3
25783,-7.73,-19.65,12.61,221.33,-45.98,-478.5,3
25809,-9.05,-19.65,14.27,221.63,-59.52,-420.27,3
25833,-9.68,-19.65,15.31,236.75,-65.61,-375.02,3
25859,-12.22,-19.65,16.08,255.35,-122.5,-339.96,3
25883,-16.36,-19.65,17.53,267.91,-162.75,-298.07,3
25909,-20.43,-18.36,19.33,287.18,-119.52,-226.49,3
25934,-20.6,-14.64,18.75,318.09,-52.56,-128.2,3
25959,-19.8,-13.28,16.93,336.39,-49.09,-21.18,3
25984,-18.37,-11.95,14.89,342.97,-79.76,72.72,3
26009,-17.15,-12.03,12.79,349.8,-86.77,156.74,3
26034,-12.81,-12.43,11.38,345.78,-82.69,228.57,3
26059,-9.17,-12.28,9.17,337.61,-108.6,274.42,3
26084,-7.72,-11.82,6.78,322.48,-85.86,298.02,3
26109,-5.76,-12.9,4.71,300.72,-43.42,323.08,3
26134,-4.44,-10.6,2.22,265.47,12.31,339.36,3
26159,-3.27,-10.53,0.88,221.63,91.95,357.29,3
26184,-2.25,-10.78,-0.04,166.02,146.7,375.46,3
26209,-1.43,-10.12,0.4,91.69,185.73,387.41,3
26234,-0.16,-10.77,3.06,26.39,213.04,393.26,3
26259,-0.49,-11.67,4.52,-25.56,195.36,410.76,3
26284,-2.09,-13.39,5.87,-71.23,178.96,432.23,3
26309,-2.27,-17.22,7.98,-110.8,180.66,459.36,3
26334,-0.49,-18.9,9.98,-137.94,58.78,487.96,3
26359,-0.48,-19.65,10.69,-135.07,4.87,514.66,3
26384,2.06,-19.65,12.78,-125.44,95.54,510.03,3
26409,3.88,-19.65,14.82,-110.01,58.23,491.19,3
26434,8.5,-19.65,15.6,-94.46,-58.17,462.53,3
26459,12.64,-19.65,18.38,-53.49,-186.65,405.09,3
26483,13.05,-17.74,18.31,13.65,-203.97,297.29,3
26509,14.52,-14.51,17.36,68.58,-145.98,154.67,3
26534,11.27,-14.94,17.29,115.6,-141.77,38.02,3
26559,6.92,-16.2,17.01,170.96,-88.97,-35.27,3
26584,5.64,-15.69,16.73,235.11,-2.32,-73.07,3
26609,6.18,-15.8,15,296.63,19.14,-86.85,3
26634,6.2,-15.21,12.76,333.95,41.89,-102.16,3
26659,7.73,-13.91,11.27,357.97,56.58,-120.82,3
26684,7.75,-12.59,9.15,366.26,79.02,-143.81,3
26709,8.95,-11.06,7.57,367.12,112.43,-173.32,3
26734,8.46,-10.23,6.1,360.65,129.75,-212.95,3
26759,7.76,-9.97,4.57,353.22,161.27,-255.63,3
26784,6.98,-10.04,3.11,350.9,228.29,-295.21,3
26809,5.81,-10.22,1.62,350.53,244.32,-320.02,3
26834,5.39,-10.67,0.17,336.94,226.4,-333.8,3
26859,5.91,-11.03,-2.01,291.39,126.64,-354.47,3
26884,4.23,-12.05,-2.57,214.38,-40.25,-387.58,3
26909,1.14,-14.62,1.06,128.77,-211.77,-415.27,3
26934,-0.46,-16.19,3.75,58.04,-325.25,-447.64,3
26960,-2,-17.13,9.76,31.08,-206.95,-493.74,3
26984,-4.73,-19.65,14.02,101.69,-29.94,-536.85,3
27009,-5.91,-19.65,14.87,210.17,130.36,-546.24,3
27034,-4.31,-19.65,14.91,298.77,70.36,-531.36,3
27059,-10.62,-19.65,14.16,307.24,-215.98,-521.55,3
27085,-17.32,-19.65,18.12,286.02,-192.56,-482.16,3
27109,-20.6,-19.65,17.54,301.57,-48.36,-387.58,3
27135,-20.6,-18.78,16.23,304.44,-83.11,-252.34,3
27159,-20.6,-14.23,14.72,301.45,-121.77,-133.93,3
27185,-18.38,-12.55,13,302.42,-86.16,-42.1,3
27209,-16.27,-11.1,11.95,297.42,-57.69,34.24,3
27235,-14.5,-9.58,11.24,295.23,-27.63,109.36,3
27260,-12.06,-9.15,9.33,289.5,-35.67,183.08,3
27285,-9.85,-8.88,7.9,278.58,-66.41,244.36,3
27310,-8.51,-9.56,6.96,273.34,-58.11,294.12,3
27334,-6.7,-11.77,5.08,265.11,-37.26,337.71,3
27360,-4.18,-11.6,2.44,238.28,-56.77,370.28,3
27385,-3.65,-10.22,0.61,204.56,-55.31,388.99,3
27410,-4.18,-12.61,-0.55,164.86,3.47,410.4,3
27435,-2.68,-13.05,-0.91,104.56,112.01,433.38,3
27459,-1.45,-12.74,1.65,23.95,179.14,444.24,3
27485,-0.97,-15.01,4.94,-50.13,182.62,453.81,3
27509,-1.34,-16.85,7.31,-101.23,170.24,460.03,3
27535,-1.27,-18.95,8.88,-142.15,210.12,455.15,3
27560,-2.35,-19.65,11.47,-186.53,284.87,436.55,3
27585,2.26,-19.65,15.74,-244.34,223.04,432.16,3
27610,2.54,-19.65,17.6,-234.64,-150.67,452.77,3
27634,0.34,-19.65,17.37,-160.68,-250.31,450.15,3
27660,4.9,-19.65,17.96,-72.51,-169.33,402.71,3
27685,6.51,-19.65,18.3,-2.09,-196.34,357.59,3
27710,7.35,-18.67,18.05,82.3,-189.64,293.2,3
27735,8.45,-17.28,17.63,163.22,-127.81,219.54,3
27760,8.15,-17.38,16.35,231.88,-107.75,148.87,3
27785,8.28,-17.36,15.36,283.34,-47.99,91.07,3
27811,8.98,-16.63,14.09,319.31,-10.55,44.73,3
27835,10.49,-15.28,13.06,344.31,16.52,-7.1,3
27860,9.61,-13.72,11.32,354.98,41.46,-68.01,3
27885,11.16,-12.51,9.38,356.08,64.32,-126.98,3
27910,10.46,-11.56,7.57,349.19,86.09,-183.38,3
27935,9.36,-10.88,6.37,341.26,121.7,-239.78,3
27960,8.13,-10.79,4.95,343.03,187.98,-290.57,3
27985,6.44,-11.29,3.65,348.64,229.57,-329.72,3
28010,5.78,-11.85,2.31,350.11,226.76,-358.68,3
28035,5,-13.41,0.62,330.41,160.54,-382.03,3
28060,4.18,-14.7,-1.02,279.25,19.39,-412.28,3
28085,2.09,-16.91,0.45,203.52,-158.66,-449.41,3
28111,-0.78,-19.65,4.03,132.3,-276.95,-490.94,3
28135,-3.44,-19.65,9.38,95.05,-220.92,-535.94,3
28160,-8.11,-19.65,13.83,146.75,-53.54,-557.52,3
28185,-9.36,-19.65,15.11,246.27,82.56,-537.09,3
28210,-10.83,-19.65,13.18,295.29,-15.31,-485.63,3
28235,-13.99,-19.65,14.84,286.69,-136.1,-434.05,3
28260,-17.39,-19.65,17.7,293.58,-151.04,-377.46,3
28286,-20.54,-19.65,17.92,305.78,-145.19,-298.5,3
28310,-20.6,-18.82,17.21,316.08,-146.41,-203.44,3
28336,-20.6,-13.77,15.53,329.31,-79.39,-92.77,3
28360,-20.6,-10.84,12.71,332.67,-68.6,27.17,3
28386,-17.69,-10.04,10.41,331.02,-75.13,124.18,3
28411,-14.28,-10.63,7.86,328.76,-21.1,200.46,3
28436,-11.21,-11.14,5.52,307.85,-16.41,264.61,3
28461,-9.37,-11.01,3.55,272.91,-43.6,315.03,3
28486,-8.68,-11.42,2.47,231.27,-39.46,359.54,3
28511,-6.87,-12.65,1.6,190.41,-31.04,398.99,3
28536,-4.71,-12.26,0.51,146.27,-3.54,423.51,3
28561,-3.08,-10.37,0.97,94.5,43.71,433.02,3
28586,-3.34,-11.87,2.75,44.93,120.12,438.51,3
28611,-2.85,-13.41,4.73,-3.73,173.35,452.41,3
28636,-2.61,-13.99,6.21,-49.83,239.99,455.7,3
28660,-3.31,-16.21,7.62,-102.94,296.46,448.38,3
28686,-2.57,-19.65,9.1,-161.78,272.68,448.08,3
28711,1.34,-18.42,11.62,-214.52,160.91,450.21,3
28736,2.12,-18.96,13.67,-238.67,-10.61,440.95,3
28761,3.65,-19.65,16.68,-204.89,-129.39,426.19,3
28786,6.01,-18.56,19.74,-139.04,-119.58,391.43,3
28811,7.53,-18.2,19.98,-63.73,-104.88,332.9,3
28837,8.65,-17.37,19.98,29.56,-85.92,273.02,3
28861,8.6,-16.57,19.98,124.68,-50.25,205.28,3
28886,7.69,-16.88,19.98,220.6,-20.37,143.33,3
28911,8.2,-16.63,19.48,301.81,50,96.07,3
28936,8.48,-16.3,17.34,357.85,84.87,55.4,3
28962,8.7,-15.56,15.01,390.84,137.13,19.42,3
28986,9.78,-13.4,13.05,409.92,174.51,-16.43,3
29011,9.94,-11.77,10.49,415.65,159.69,-63.74,3
29036,9.77,-10.29,8.12,404.37,190.85,-114.54,3
29061,8.56,-8.88,5.23,389.01,251.76,-152.83,3
29086,8.33,-7.89,4.56,371.94,217.25,-190.51,3
29111,7.95,-8.72,2.64,349.86,192.07,-241.24,3
29136,6.72,-8.92,0.37,311.33,137.49,-301.97,3
29161,4.82,-11.77,0.66,259.44,-30.67,-357.34,3
29186,1.85,-14.21,1.92,205.23,-158.3,-399.41,3
29211,-1.13,-16.31,3.9,162.42,-217.75,-437.89,3
29236,-2.78,-18.28,7.08,150.9,-166.53,-476.36,3
29262,-6.04,-19.65,10.04,185.05,-43.11,-510.45,3
29286,-9.06,-19.65,11.96,259.25,28.47,-508.31,3
29311,-11.72,-19.65,11.72,314.19,-15.49,-470.51,3
29336,-13.64,-19.65,12.66,326.45,-133.97,-425.94,3
29361,-17.06,-19.65,15,323.64,-192.93,-386.91,3
29386,-20.6,-19.65,16.93,330.78,-156.16,-334.11,3
29412,-20.6,-19.23,17.79,332.12,-163.36,-236.73,3
29437,-20.6,-16.31,17.56,340.53,-191.95,-136.73,3
29462,-20.6,-13.5,14.74,357.91,-97.02,-37.04,3
29487,-18.89,-11.57,11.39,351.02,-38.6,57.78,3
29512,-14.97,-9.36,9.06,335.65,15.73,144.42,3
29537,-11.89,-10.28,6.77,314.74,-29.7,222.11,3
29562,-9.2,-9.68,4.78,286.51,-84.45,269.97,3
29587,-7.65,-8.83,3.6,256.45,-45.49,307.29,3
29612,-6.13,-9.76,2.29,224.38,-51.71,339.48,3
29636,-5.01,-9.48,1.14,186.57,-23.6,363.87,3
29662,-3.14,-8.87,0.58,142.06,36.21,387.59,3
29687,-2.88,-9.55,0.14,93.1,84.81,409.18,3
29711,-2.31,-10.73,0.22,37.37,132.68,428.38,3
29737,-1.46,-11.6,1.09,-27.76,201.52,438.81,3
29761,-1.8,-14.75,3.43,-101.9,281.46,434.73,3
29787,-1.59,-18,6.03,-179.22,307.55,421.19,3
29811,-0.81,-18.5,8.91,-254.22,276.4,404.54,3
29836,2.73,-19.65,13.77,-313.91,140.36,404.6,3
29862,-0.23,-19.65,16.34,-316.9,-173.23,423.14,3
29886,4.86,-19.65,19.98,-230.01,-234.94,421.56,3
29912,9.34,-17.02,19.98,-97.51,-80.98,365.34,3
29936,10.02,-17.11,19.98,18.1,-131.95,284.91,3
29962,10.43,-17.74,19.98,146.63,-68.91,202.84,3
29987,8.7,-17.86,19.98,244.07,4.81,133.75,3
30012,5.81,-17.75,17.61,307.55,30.3,92.9,3
30037,4.54,-17.3,14.91,347.18,102.62,87.35,3
30061,5.19,-15.83,12.65,359.86,116.76,92.11,3
30087,5.9,-13.86,11.2,348.89,109.63,88.08,3
30111,9,-9.38,11.25,336.51,105.48,62.05,3
30137,8.5,-7.88,9.31,329.01,93.47,12.78,3
30162,8.36,-6,7.46,326.45,153.04,-40.39,3
30186,7.75,-5.68,7.34,328.95,160.36,-90.15,3
30212,8.04,-5.43,5.89,335.96,157.8,-148.74,3
30236,7.39,-6.25,4.27,338.34,171.52,-205.94,3
30261,6.78,-7.56,2.62,328.09,138.35,-263.07,3
30287,5.72,-9.01,1.23,302.42,64.45,-322.1,3
30311,4.01,-12.48,0.41,260.66,-52.93,-375.33,3
30337,2.1,-14.78,0.8,210.17,-155.98,-426.12,3
30361,-0.89,-18.26,2.51,162.61,-213.84,-477.22,3
30386,-3.7,-19.65,5.69,136.08,-157.08,-526.91,3
30411,-7.46,-19.65,10.39,158.89,-72.2,-558.8,3
30436,-11.76,-19.65,14.41,243.16,-2.57,-553.56,3
30462,-14.04,-19.65,13.67,320.11,-14.03,-517.4,3
30486,-17.42,-19.65,13.95,332.12,-108.17,-455.2,3
30512,-20.6,-19.65,16.07,309.56,-194.76,-366.24,3
30536,-20.6,-19.65,17.66,317.91,-139.52,-263.26,3
30562,-20.6,-18.26,16.46,335.29,-111.95,-150.63,3
30587,-20.6,-15.36,14.28,340.9,-109.27,-47.34,3
30612,-17.68,-12.93,11.98,332.48,-79.09,42.11,3
30637,-14.67,-11.19,11.09,323.22,-74.58,115.89,3
30662,-12.84,-10.74,9.48,322.12,-54.21,176.74,3
30687,-9.79,-11.65,6.59,314.5,-80.25,234.24,3
30713,-7.7,-9.72,4.09,287.36,-78.54,269,3
30737,-6.71,-8.25,2.58,251.14,-42.56,293.39,3
30762,-6.31,-9.36,1.39,209.99,-7.5,324.24,3
30787,-4.3,-10.18,0.36,157.55,30,360.52,3
30812,-2.12,-7.71,-0.24,102.79,20.91,381.19,3
30836,-2.1,-7.27,-0.71,56.57,25.48,386.56,3
30862,-1.42,-9.46,0.38,2.61,84.57,392.59,3
30887,-0.55,-10.54,2,-51.05,78.71,402.71,3
30911,-0.68,-10.86,2.13,-88.49,40.61,415.21,3
30937,-1.89,-15,4.16,-118.24,103.59,437.29,3
30961,-2.25,-19.45,5.51,-162.21,174.93,455.34,3
30986,-0.21,-19.65,9.02,-218.3,204.63,460.27,3
31012,4.17,-19.65,13.72,-258.12,74.75,469.85,3
31036,5.25,-19.65,14.66,-250.99,-171.89,481.49,3
31062,6.53,-19.65,16.97,-135.01,-311.28,464.85,3
31086,11.34,-19.65,19.34,-10.93,-156.41,389.24,3
31112,10.38,-19.65,18.94,78.28,-156.83,299.24,3
31136,12.36,-18.77,17.69,167.91,-160.12,196.68,3
31162,11.56,-17.15,16.63,241.63,-48.17,96.8,3
31187,9.63,-16.96,15.12,300.35,-15,23.45,3
31212,7.79,-16.53,13.87,343.64,50.06,-24.29,3
31237,7.51,-15.36,12.47,375.84,101.52,-52.04,3
31262,6.61,-14.46,11.12,394.01,128.1,-73.5,3
31287,7.28,-12.57,11.64,414.56,232.01,-85.09,3
31312,8.41,-11.99,11.05,444.13,295.24,-97.1,3
31337,8.71,-11.17,8.74,462.3,303.71,-116.98,3
31362,8.03,-10.86,7.95,465.1,310.48,-138.56,3
31387,7.6,-9.73,3.18,439.8,270.24,-161.91,3
31412,7.5,-9.61,0.75,403.03,248.16,-202.65,3
31437,7.56,-9.14,-0.88,350.47,108.29,-251.43,3
31462,4.25,-11.46,-0.83,276.88,-130.67,-316,3
31487,1.88,-13.49,0.67,199.99,-306.71,-380.08,3
31512,-1.29,-15.44,3.93,131.82,-336.83,-434.47,3
31537,-4.68,-17.81,7.49,97.67,-292.62,-479.66,3
31562,-7.9,-18.68,11.5,121.27,-134.94,-511.79,3
31587,-11.88,-19.65,14.83,208.95,35.97,-504.35,3
31613,-12.64,-19.65,14.11,295.47,82.98,-456.06,3
31637,-12.78,-19.65,12.5,330.66,-36.47,-397.89,3
31663,-15.11,-19.65,13.5,323.28,-176.65,-362.77,3
31687,-19.02,-19.65,14.12,314.44,-168.3,-317.95,3
31713,-20.6,-19.05,14.01,308.95,-114.88,-242.71,3
31738,-20.6,-15.26,12.68,299.8,-104.15,-147.1,3
31763,-20.6,-12.17,11.65,291.75,-87.44,-48.81,3
31788,-17.64,-9.43,10.94,285.29,-79.33,41.68,3
31813,-14.06,-8.1,9.28,281.45,-80.98,111.13,3
31838,-10.81,-7.5,7.23,275.47,-69.64,162.11,3
31863,-8.61,-7.34,5.54,265.35,-64.45,202.29,3
31888,-7.61,-6.64,3.86,243.83,-55.8,235.28,3
31913,-6.42,-6.22,2.89,211.94,-25.19,267.84,3
31937,-6.66,-6.37,1.88,178.64,-6.28,305.95,3
31963,-4.97,-7.25,1.26,135.17,38.71,345.95,3
31987,-3.83,-6.94,1.22,81.82,17.13,374.6,3
32012,-3.13,-8.37,1.13,40.47,-30.86,397.47,3
32038,-3.37,-10.25,0.77,4.93,7.13,416.74,3
32062,-2.25,-11.6,2.72,-36.96,103.17,434.36,3
32087,-1.33,-13.67,5.72,-82.57,148.71,448.26,3
32112,-1.23,-16.06,6.91,-113.43,118.29,457.23,3
32137,-1.87,-18.41,6.47,-150.32,140.66,454.48,3
32163,-1.26,-19.65,7.5,-208.79,217.68,440.27,3
32187,0.92,-19.65,11.62,-276.11,158.65,426.68,3
32212,3.9,-19.65,14.5,-308.36,-148.11,448.99,3
32237,7.51,-19.65,15.22,-254.34,-358.17,457.96,3
32262,10.57,-19.65,16.54,-149.77,-264.82,388.2,3
32287,12.48,-19.56,18.77,-57.02,-150.55,282.96,3
32312,13.61,-17.85,19.5,56.39,-161.59,178.81,3
32338,12.52,-16.31,18.16,178.03,-107.38,66.25,3
32362,8.59,-18.02,15.51,282.91,-3.24,-5.33,3
32388,6.71,-19.05,13.55,356.39,77.98,-33.75,3
32412,5.36,-19.19,12,405.23,144.93,-38.2,3
32438,6.82,-17.66,10.99,432.97,213.59,-31.79,3
32463,6.98,-15.68,9.5,440.9,232.37,-34.11,3
32487,6.81,-13.72,8.22,433.52,250.24,-43.56,3
32513,7.12,-11.46,7.13,432.06,305.6,-62.77,3
32537,5.9,-10.23,5.77,424.37,348.59,-76.31,3
32563,7.79,-8.5,4.73,414.07,282.43,-99.96,3
32587,7.71,-8.06,3.3,395.47,246.4,-148.87,3
32612,8.01,-9.38,2.14,369.19,132.31,-210.69,3
32638,6.21,-10.87,1.39,331.45,-42.38,-285.82,3
32662,3.05,-14.74,0.85,278.03,-222.5,-368.13,3
32688,0.69,-17.79,1.47,214.86,-277.2,-442.64,3
32712,-3.54,-19.65,6.08,171.27,-269.21,-502.46,3
32737,-7.08,-19.65,10.02,181.57,-202.62,-537.03,3
32763,-11.75,-19.65,12.98,237.06,-23.72,-540.69,3
32787,-10.96,-19.65,13.03,305.05,14.02,-511.79,3
32813,-13.63,-19.65,12.05,317.48,-126.83,-467.4,3
32837,-19.67,-19.65,13.65,297.42,-223.54,-410.69,3
32863,-20.6,-19.65,14.51,289.44,-144.76,-323.01,3
32888,-20.6,-17.09,14.4,283.16,-129.82,-209.9,3
32913,-20.6,-13.43,14.69,278.52,-144.88,-103.32,3
32939,-17.93,-11.26,13.74,292.55,-99.27,-12.16,3
32963,-14.65,-10.16,11.9,293.28,-82.5,65.03,3
32988,-11.98,-9.15,10.97,291.14,-95.98,126.44,3
33013,-10.02,-9.06,9.33,294.8,-76.89,172.96,3
33038,-7.71,-8.67,7.4,293.46,-68.54,217.96,3
