t_ms,ax,ay,az,gx,gy,gz,label
5,0.63,4.96,-9.22,13.77,7.25,-4.23,0
29,1.46,4.74,-9.94,15.54,25.97,-8.81,0
54,1.11,4.72,-10.93,12,-13.3,-15.88,0
79,1.27,4.62,-11.8,-4.65,-4.27,-18.62,0
103,-0.21,4.52,-11.4,-30.44,-2.99,-15.39,0
128,-0.31,4.11,-10.8,-57.39,22.98,-8.87,0
152,-0.51,4.19,-9.74,-75.5,35.54,-3.14,0
177,-0.39,4.39,-8.68,-82.21,26.21,2.47,0
201,0.26,4.55,-8.31,-81.23,39.75,4.49,0
227,0.89,4.71,-8.47,-83.73,36.64,-0.64,0
252,0.24,5.13,-7.45,-84.28,15.67,-2.22,0
276,0.25,5.57,-6.62,-77.51,19.81,1.62,0
301,1.07,6.09,-6.42,-68.43,14.45,3.45,0
325,1.21,6.39,-6.04,-59.77,-12.02,-0.7,0
350,0.53,6.76,-5.78,-52.15,-2.26,-2.83,0
375,0.49,6.97,-5.3,-45.56,14.26,-0.76,0
399,0.5,7.04,-5.16,-37.39,4.57,1.5,0
424,0.8,7.25,-5.14,-24.95,-5.13,4.73,0
448,1.06,7.2,-4.84,-14.16,-16.53,4.55,0
473,1.2,7.21,-4.77,-5.62,-18.05,2.66,0
497,1.17,7.09,-4.75,2,-14.76,0.03,0
522,1.01,7,-5,8.65,-8.72,-1.55,0
547,1.01,6.96,-5.4,14.01,-8.17,-2.4,0
572,0.78,6.95,-5.55,16.45,-18.11,-3.01,0
597,0.65,6.94,-5.71,18.52,-16.65,-4.48,0
621,0.51,7.04,-5.9,19.62,-4.46,-3.99,0
646,0.62,7.19,-6.15,19.32,-2.2,-3.14,0
670,0.37,7.33,-6.11,20.66,-6.65,0.4,0
695,0.59,7.33,-6.68,24.19,1.4,2.72,0
720,0.89,7.43,-7.26,24.32,3.72,3.21,0
744,1.17,7.48,-7.39,23.83,-3.72,2.96,0
769,1.4,7.24,-7.42,22.37,-7.44,1.74,0
793,1.41,6.72,-7.77,13.95,-5.74,-0.76,0
818,1.34,6.65,-7.67,2.73,1.89,-3.01,0
842,1.45,6.88,-7.45,-3.37,9.32,-4.29,0
867,1.36,6.83,-7.17,-6.23,7.92,-6.61,0
892,1.18,6.61,-6.65,-5.99,2.98,-8.93,0
916,0.89,6.69,-6.37,-4.95,6.4,-9.48,0
941,0.51,6.7,-6.39,-2.88,8.84,-8.44,0
965,0.17,6.76,-6.5,-0.44,5.67,-5.33,0
990,0.28,6.77,-6.64,0.9,1.76,-1.18,0
1015,0.5,6.75,-6.73,-0.01,7.8,1.44,0
1039,0.68,6.82,-6.84,-1.54,10,2.35,0
1064,1.06,6.83,-7.08,-1.96,8.04,1.01,0
1088,1.06,6.83,-7.07,-3,1.82,-2.16,0
1113,0.77,6.79,-6.86,-5.56,4.14,-4.17,0
1137,0.58,6.87,-6.37,-4.77,9.75,-3.56,0
1162,0.95,6.72,-6.26,-1.05,5.24,-4.48,0
1187,1,6.82,-6.29,3.46,-0.31,-6.92,0
1212,0.66,6.69,-6.42,5.05,-3.05,-8.81,0
1237,0.49,6.68,-6.64,5.35,0.36,-8.68,0
1261,0.36,6.86,-6.85,4.87,-1.53,-6.55,0
1286,0.03,6.92,-6.7,3.95,-3.24,-2.65,0
1310,0.29,6.93,-6.92,3.95,2.86,1.5,0
1335,0.43,7.06,-7.1,4.13,1.22,3.94,0
1360,0.92,7.1,-7.44,4.68,0.36,4.67,0
1384,1.04,6.97,-7.54,2.37,2.07,2.9,0
1409,0.99,6.85,-7.31,-2.45,1.22,0.89,0
1433,1.04,6.92,-7.28,-4.52,5.18,-1.31,0
1458,0.93,6.77,-7.04,-5.32,-0.55,-4.11,0
1482,0.76,6.78,-6.79,-6.29,-1.22,-6.06,0
1507,0.56,6.61,-6.47,-6.17,1.09,-6.55,0
1532,0.73,6.61,-6.21,-6.17,0.12,-7.4,0
1556,0.48,6.57,-6.09,-3.31,0.91,-7.22,0
1581,0.34,6.54,-6.13,0.96,-1.59,-6,0
1605,0.22,6.7,-6.23,3.59,-3.54,-2.95,0
1630,0.38,6.9,-6.57,5.35,2.68,0.4,0
1655,0.5,6.9,-6.88,5.41,2.13,2.9,0
1679,0.64,6.95,-7.11,4.93,3.72,2.96,0
1704,0.85,7,-7.49,4.74,7.43,2.66,0
1728,0.89,6.89,-7.53,1.57,6.4,0.58,0
1753,1.09,6.84,-7.6,-0.38,2.19,-2.22,0
1777,0.89,6.84,-7.31,-2.63,-4.64,-4.72,0
1803,1.01,6.74,-7.24,-5.38,-2.14,-6.73,0
1828,0.8,6.77,-6.89,-7.76,-5.55,-8.26,0
1852,0.64,6.78,-6.68,-8.79,-3.78,-8.44,0
1877,0.65,6.8,-6.75,-7.76,-2.02,-8.32,0
1901,0.71,6.89,-6.81,-10.38,1.4,-8.87,0
1926,0.23,6.85,-6.93,-14.4,6.52,-8.93,0
1950,0.35,6.95,-7.04,-21.29,28.65,-8.32,0
1975,0.42,7.01,-6.91,-22.88,10,-6.92,0
2000,-0.05,7.16,-6.23,-22.88,-1.41,-5.82,0
2024,-0.37,7.32,-5.87,-17.09,5.97,-1.12,0
2049,0.03,7.34,-5.81,-12.76,2.98,4.06,0
2073,0.42,7.24,-5.97,-8.18,-6.22,5.71,0
2099,0.52,7.22,-6.05,-7.27,2.25,3.69,0
2123,0.92,7.36,-6.28,-7.27,12.25,0.4,0
2148,0.64,7.6,-6.36,-5.07,1.15,-0.7,0
2173,0.51,7.53,-6.46,-5.13,-7.44,0.89,0
2197,0.94,7.54,-6.93,-5.13,-2.14,-0.15,0
2222,0.61,7.77,-6.83,-8.61,-7.38,-1,0
2246,0.92,7.93,-7.1,-10.99,-4.39,-1.06,0
2271,1.12,8.12,-7.44,-13.73,0.91,-3.81,0
2296,1.23,8.34,-7.72,-17.88,-5.92,-7.71,0
2320,1.1,8.33,-7.61,-26.9,-7.81,-13.14,0
2345,0.91,8.16,-7.33,-34.77,-6.83,-16.18,0
2369,0.21,8.16,-7.06,-40.19,-13.66,-14.6,0
2395,0.3,7.99,-7.47,-48.55,-10.92,-12.59,0
2419,0.14,7.65,-7.58,-65.68,0.85,-11.55,0
2444,0.41,7.47,-7.06,-82.45,9.75,-10.82,0
2469,0.18,7.53,-5.86,-94.1,3.65,-11.31,0
2493,0.36,7.68,-5.05,-95.44,0.12,-10.57,0
2518,0.62,7.63,-4.38,-96.9,-9.15,-12.77,0
2543,0.7,7.34,-3.69,-101.29,-4.94,-18.87,0
2568,0.68,7.56,-2.51,-101.78,5.42,-25.51,0
2592,-0.21,7.76,-1.5,-94.83,0.79,-31.12,0
2617,-0.65,7.7,0,-83.55,-5.74,-31.12,0
2642,-1.54,7.77,1.83,-64.58,-11.35,-25.21,0
2667,-2.46,7.28,3.39,-35.32,-16.59,-18.81,0
2692,-3.07,6.99,5.2,1.27,-7.44,-6.37,0
2716,-3.06,6.85,5.98,49.44,-10.61,9.12,0
2741,-2.67,6.32,6.05,98.22,-19.82,23.75,0
2766,-2.02,5.27,5.64,143.71,-11.77,33.14,0
2790,-2.7,4.23,5.91,193.16,-16.04,44.67,0
2816,-3.77,3.35,6.63,253.64,-40.61,66.07,0
2840,-2.74,1.57,5.34,332.36,-37.75,96.13,0
2865,1.82,-1.32,0.25,410.17,-61.04,108.27,0
2889,2.71,-4.16,-4.01,454.31,-151.34,74,0
2915,2.94,-7.33,-10.07,465.96,-86.1,35.1,0
2940,4.34,-8.63,-17.22,409.37,20.54,-7.1,0
2964,2.55,-7.76,-19.22,333.52,-81.77,-30.82,0
2990,-2.63,-6.08,-19.22,188.1,-97.5,-53.32,0
3014,-4.24,-5.25,-19.22,58.71,106.28,-34.54,0
3039,-1.9,-5.03,-19.22,-23.98,143.96,-22.04,0
3065,-0.44,-4.52,-19.22,-69.04,27.13,-18.62,0
3089,0.24,-3.41,-19.22,-113.06,16.89,-22.89,0
3114,0.3,-2.24,-19.22,-168.18,27.62,-28.62,0
3138,0.38,-1.7,-18.5,-219.52,34.57,-33.44,0
3164,0.73,-1.28,-14.94,-254.22,51.15,-39.23,0
3188,0.99,-0.74,-12.73,-267.63,49.57,-42.71,0
3213,1.7,0.13,-10.6,-278.49,50.54,-50.88,0
3239,1.91,0.61,-8.49,-280.99,48.04,-64.05,0
3263,1.74,1.21,-7.25,-272.33,43.47,-73.5,0
3288,1.52,2.01,-6.13,-261.29,32.43,-82.46,0
3312,0.25,2.91,-4.25,-247.75,16.09,-81.24,0
3338,-0.42,3.67,-2.92,-234.64,4.75,-72.59,0
3363,-0.9,4.48,-1.63,-221.17,16.89,-63.2,0
3387,-0.46,5.23,-0.05,-199.22,26.46,-55.51,0
3412,0.28,6.06,0.16,-170.68,3.04,-51.55,0
3436,0.06,6.02,1.04,-156.05,-16.65,-53.93,0
3462,-0.75,6.04,2.38,-137.15,1.58,-58.07,0
3486,-1.53,5.96,3.88,-116.84,12.01,-59.23,0
3511,-2.03,6.18,4.89,-89.04,6.46,-54.66,0
3536,-3.21,6.4,5.68,-56.72,-6.22,-46.06,0
3560,-4.41,6.73,6.58,-20.38,-0.92,-27.71,0
3586,-3.64,6.58,6.23,15.72,7.86,-10.64,0
3610,-3.15,6.79,5.92,51.39,7.5,2.05,0
3635,-2.56,7.03,5.11,84.99,4.87,11.99,0
3659,-2.14,6.34,4.88,114.07,1.03,14.3,0
3684,-2.71,5.44,5.82,145.11,6.15,18.51,0
3709,-4.69,4.13,7.58,185.84,19.57,34,0
3734,-6.5,3.23,8.71,249.92,32.13,70.95,0
3759,-6.26,1.32,7.52,340.65,-4.33,130.77,0
3783,-1.87,-2.91,5.19,438.82,21.95,175.95,0
3808,0.62,-7.53,1.35,513.21,-33.6,181.44,0
3834,6.44,-12.71,-5.52,589.19,-62.02,168.75,0
3858,11.61,-15.33,-16.69,577.12,-140.8,70.77,0
3884,5.63,-13.31,-19.22,435.47,-149.82,-43.93,0
3908,-0.22,-9.26,-19.22,217.24,73.35,-88.93,0
3933,-4.22,-7.24,-19.22,2.85,156.15,-58.26,0
3959,-2.99,-5.69,-19.22,-113.43,151.15,-10.88,0
3983,1.08,-4.68,-19.22,-151.17,105.3,10.95,0
4008,3.6,-2.38,-19.22,-155.8,17.62,1.62,0
4032,3.84,-0.88,-16.81,-176.35,-12.08,-16.37,0
4058,3.41,0.28,-15.24,-197.39,14.39,-33.56,0
4082,3.32,0.93,-13.68,-212.33,-7.93,-44.48,0
4107,2.91,1.07,-11.93,-225.62,-34.94,-51.85,0
4133,2.68,1.33,-10.05,-236.9,-6.16,-57.34,0
4157,3.06,1.47,-9.95,-242.51,4.63,-68.26,0
4182,2.24,1.87,-8.66,-244.83,-23.54,-76.55,0
4206,0.97,2.26,-6.74,-250.68,-21.41,-73.07,0
4232,0.71,2.83,-5.18,-250.62,13.53,-66.79,0
4256,0.89,3.38,-4.27,-245.62,21.46,-66.61,0
4281,0.47,4.32,-3.36,-234.64,6.4,-64.05,0
4306,0.62,4.23,-2.19,-225.68,-15.25,-64.54,0
4331,0.21,4.94,-1.33,-217.45,-2.87,-65.7,0
4356,-0.28,5.33,-0.78,-208.67,27.86,-70.39,0
4380,-0.47,5.65,-0.05,-203.85,40.36,-77.46,0
4405,-1.08,5.88,2.11,-187.94,12.86,-80.03,0
4430,-2.27,6.12,4.16,-167.94,2.92,-76.37,0
4455,-3.3,6.34,5.4,-137.45,10.73,-66.37,0
4480,-4.5,6.23,6.69,-109.65,-4.76,-53.75,0
4504,-4.72,6.27,7.8,-76.78,-2.93,-35.88,0
4529,-4.89,5.65,8.67,-38.24,4.69,-20.82,0
4553,-5.03,5.33,9.46,5.05,-7.44,-7.16,0
4579,-4.89,5.14,9.51,50.9,-18.91,7.66,0
4604,-4.98,5.16,9.26,94.99,-6.04,22.66,0
4628,-4.53,4.85,8.86,141.94,5.54,42.29,0
4653,-3.65,3.84,8.59,189.56,1.95,53.69,0
4677,-4.12,3.37,8.44,242.3,2.01,67.41,0
4702,-5.85,2.38,7.93,303.16,-24.58,92.17,0
4728,-6.91,0.96,7.15,378.76,-19.27,137.47,0
4752,-3.78,-3.15,4.84,449.92,23.41,190.22,0
4777,1.56,-7.7,1.77,508.4,61.09,208.63,0
4802,5.21,-11.92,-2.48,582.54,-17.14,203.81,0
4827,4.65,-15.05,-7.02,622.05,-147.32,155.64,0
4851,5.48,-17.99,-12.84,611.57,-110.43,95.22,0
4877,7.85,-17.49,-19.22,503.95,33.53,15.52,0
4902,4.91,-15.71,-19.22,354.37,-44.21,-37.22,0
4926,-0.58,-13.75,-19.22,182.55,-93.54,-56.61,0
4952,-2.61,-13.14,-19.22,20.29,41.15,-35.94,0
4976,-0.46,-11.21,-19.22,-100.26,77.01,-16.86,0
5001,0.89,-8.91,-19.22,-193.85,7.68,-11.55,0
5027,2.29,-7.86,-19.22,-257.39,17.01,-17.28,0
5051,3.08,-7.26,-17.73,-300.92,34.45,-33.07,0
5076,2.47,-5.88,-14.83,-324.58,-5.37,-43.56,0
5101,2.41,-5.14,-12.53,-338.12,-15.49,-47.34,0
5126,2.77,-4.07,-10.39,-343.97,-2.26,-52.1,0
5150,3.32,-3.31,-9.05,-342.75,-33.54,-65.94,0
5175,2.03,-2.19,-6.16,-337.39,-69.15,-73.93,0
5201,0.94,-0.75,-3.82,-328.73,-19.27,-70.33,0
5225,0.91,0.46,-3.57,-306.05,19.87,-74.35,0
5250,-0.31,1.48,-2.21,-294.58,-6.77,-76.73,0
5274,-0.13,2.35,-0.91,-275.19,-2.14,-69.6,0
5300,1.04,2.71,-0.92,-262.57,30.12,-76.31,0
5325,0.29,3.59,-0.11,-258.61,51.52,-96.06,0
5349,-0.46,4.23,0.98,-235.25,34.32,-103.5,0
5374,-2.23,4.05,2.66,-215.25,-57.63,-105.76,0
5399,-5.23,4.87,5.19,-198.49,-32.38,-88.74,0
5424,-6.33,5.56,7.24,-160.38,50.24,-59.48,0
5448,-7.18,6.04,8.29,-115.56,16.34,-31.06,0
5473,-7.16,5.82,9.47,-62.88,-26.35,1.5,0
5499,-6.42,5.84,9.71,-11.11,-15,29.49,0
5523,-5.67,5.85,9.73,39.5,-0.86,48.94,0
5548,-4.8,5.92,9.35,90.78,-1.83,64.61,0
5572,-3.93,5.09,8.68,142.3,-24.94,73.75,0
5597,-4.2,4.38,8.6,195.23,-40.13,84.61,0
5623,-3.64,3.96,8.05,256.02,-48.54,101.44,0
5647,-3.09,2.69,7.31,312.67,-41.22,114.24,0
5672,-2.65,0.91,6.84,377.06,-11.22,134.85,0
5696,-2.54,-1.29,5.95,465.1,-28.42,162.59,0
5722,1.05,-7.51,2.55,562.3,-46.59,183.81,0
5746,5.22,-13.29,-1.9,638.03,-136.47,155.64,0
5771,5.73,-17.86,-6.33,693.64,-252.93,75.58,0
5797,3.78,-19.65,-14.84,676.87,-285.49,-42.22,0
5821,-6.54,-19.09,-19.22,506.38,-149.64,-108.93,0
5847,-7.9,-15.28,-19.22,265.53,112.13,-66.55,0
5871,-7.5,-13.73,-19.22,40.17,47.37,-20.33,0
5896,-5.32,-12.97,-19.22,-99.58,64.2,5.95,0
5922,-2.51,-10.34,-19.22,-165.38,131.34,14.97,0
5946,-0.14,-7.47,-19.22,-209.28,27.43,11.68,0
5971,1.09,-6.56,-18.54,-254.22,-7.26,1.38,0
5996,1.95,-5.91,-17.01,-292.39,53.9,-19.05,0
6021,2.45,-4.93,-15.45,-321.96,53.71,-41.43,0
6045,2.71,-4.45,-13.91,-344.46,16.64,-62.71,0
6070,1.52,-3.78,-10.9,-361.29,6.58,-73.99,0
6096,0.65,-2.25,-7.94,-356.35,10.42,-76,0
6120,0.45,-1.09,-6.63,-345.31,28.17,-78.38,0
6145,1.3,-0.45,-4.86,-334.83,18.71,-86.79,0
6169,0.14,0.36,-3.2,-320.19,2.92,-91.37,0
6195,-0.76,0.95,-1.84,-306.66,17.43,-88.13,0
6219,-0.55,2.08,-1.17,-288.18,29.57,-84.6,0
6244,0.02,2.23,-0.16,-266.05,-36.71,-87.89,0
6269,-1.47,2.12,1.11,-261.84,-54.15,-87.89,0
6294,-2.51,3.15,2.95,-240.8,-30.31,-82.1,0
6319,-4.88,4.37,5.59,-218.18,-29.76,-65.7,0
6343,-5.21,5.33,7.94,-172.33,7.74,-43.62,0
6368,-5.86,5.8,10.21,-113.67,-4.76,-21.31,0
6394,-6.04,6.6,11.53,-49.4,-32.63,2.72,0
6418,-5,5.92,11.62,16.45,-5.61,21.25,0
6443,-3.89,5.71,10.71,76.33,0.67,33.27,0
6467,-3.22,5.79,9.87,127,-7.63,40.34,0
6492,-2.38,5.47,8.76,175.35,14.57,44.79,0
6517,-2.08,4.88,7.61,214.86,29.14,47.05,0
6542,-3.09,4.17,7.43,253.34,36.89,55.95,0
6567,-4.34,3.29,7.38,308.09,54.63,84.49,0
6591,-4.57,1.6,6.8,365.72,104.87,131.86,0
6617,-0.51,-2.17,4.8,449.8,110.24,188.14,0
6641,2.37,-7.46,0.46,528.03,10,202.17,0
6666,4.66,-13.26,-2.59,583.46,9.93,185.58,0
6692,4.89,-18.13,-6.6,634.92,-55.13,170.89,0
6716,3.83,-19.52,-14.45,657.72,-189.58,129.91,0
6741,1.57,-19.15,-19.22,568.82,-254.88,43.88,0
6766,-3.29,-16.01,-19.22,334.13,-103.3,-6.31,0
6791,-5.09,-13.17,-19.22,95.29,125.42,4.55,0
6815,-0.01,-13.23,-19.22,-71.78,154.2,8.57,0
6841,1.67,-11.52,-19.22,-151.9,90.79,-14.29,0
6866,1.04,-8.68,-19.22,-178.61,41.64,-26.25,0
6890,1.07,-7.43,-18.98,-212.57,22.8,-33.2,0
6916,1.87,-7.18,-18.63,-259.7,12.74,-43.38,0
6940,1.29,-6.75,-15.74,-305.56,32.86,-49.11,0
6965,1.89,-5.24,-14.05,-329.77,89.81,-52.16,0
6991,2.43,-4.85,-12.26,-335.8,25.24,-59.23,0
7015,2.73,-3.68,-10.32,-339.09,-17.32,-64.96,0
7040,2.74,-2.94,-7.35,-339.58,4.39,-76.61,0
7064,2.74,-1.56,-5.92,-330.44,46.46,-93.01,0
7090,2.3,-0.36,-4.7,-314.83,33.35,-106.61,0
7114,1.33,0.67,-3.86,-304.28,24.69,-107.53,0
7139,1.41,1.2,-2.35,-293.91,37.25,-112.4,0
7165,0.48,2.1,-1.17,-276.41,31.89,-118.01,0
7189,-0.64,3.1,-0.33,-256.41,3.41,-116.31,0
7214,-1.6,3.55,1.1,-235.86,-1.59,-106.06,0
7238,-2.24,4.07,2.47,-217.27,-6.65,-97.34,0
7264,-2.56,5.03,3.7,-192.94,-36.71,-89.78,0
7289,-3.24,5.03,4.62,-165.68,-14.21,-78.5,0
7313,-3.84,5.31,5.78,-139.4,-16.35,-69.66,0
7338,-3.94,5.36,6.92,-108.55,-38.54,-59.17,0
7363,-4.29,4.89,8.05,-74.71,-43.42,-48.26,0
7388,-5.24,5.88,9.24,-40.07,-52.63,-33.93,0
7412,-5.62,6.33,9.71,4.87,-31.1,-12.77,0
7437,-5.91,6.27,9.29,49.56,-6.77,15.22,0
7462,-4.76,6.06,8.6,87.12,-4.58,40.03,0
7487,-3.36,5.43,7.53,122.36,0.18,52.72,0
7512,-2.9,5.89,7.08,152.73,18.17,57.72,0
7536,-2.63,5.92,6.68,191.63,26.76,67.29,0
7561,-3.8,4.72,6.97,232.12,30.48,79.73,0
7586,-5.76,4.37,8.15,290.23,45.91,115.28,0
7611,-6.32,3.07,7.72,376.14,9.45,172.47,0
7636,-3.12,-3.8,5.94,467.36,67.13,228.81,0
7660,1.23,-10.42,2.6,555.77,25.54,266.13,0
7686,4.65,-16.76,-1.77,629.86,-84.88,263.81,0
7710,10.94,-19.65,-7.62,701.08,-237.62,178.08,0
7735,5.93,-19.65,-15.58,691.08,-380.24,13.39,0
7761,-4.08,-18.6,-19.22,536.14,-252.62,-102.1,0
7785,-8.59,-16.22,-19.22,268.03,84.99,-71.24,0
7811,-5.5,-15.32,-19.22,33.77,143.59,-15.76,0
7835,-3.82,-13.93,-19.22,-119.04,105.12,8.08,0
7860,-0.95,-10.31,-19.22,-173.06,134.14,18.82,0
7886,1.19,-6.76,-17.03,-182.33,76.89,14.97,0
7910,3.42,-5.42,-16.44,-191.53,-3.85,-3.75,0
7935,3.39,-5.12,-16.2,-224.71,32.56,-31.67,0
7960,4.24,-4.53,-15.95,-258.24,60,-60.45,0
7985,3.29,-4.62,-14.49,-289.28,-14.94,-80.45,0
8009,1.79,-4.38,-12.11,-317.94,-22.2,-82.59,0
8034,2.32,-3.66,-10.24,-333.85,44.08,-87.04,0
8060,2.87,-2.93,-8.28,-339.03,29.02,-103.07,0
8084,1.28,-2.09,-6.89,-338.24,27.31,-111.73,0
8109,1.66,-0.7,-6.43,-331.84,67.13,-116.67,0
8134,0.42,-0.1,-3.87,-328.36,18.84,-121.67,0
8159,-0.89,1.26,-2.39,-312.08,19.08,-111.73,0
8184,-0.26,1.85,-1.52,-293.3,40.67,-106.06,0
8209,-1.02,2.79,0.1,-283.36,10.24,-107.28,0
8234,-1.97,3.72,1.79,-261.47,17.5,-101.55,0
8258,-2.78,4.42,2.9,-236.84,36.4,-93.93,0
8283,-3.38,4.39,4.12,-209.89,-3.97,-84.05,0
8308,-4.39,4.62,5.85,-176.54,-30.49,-69.84,0
8333,-4.95,5.37,8.19,-134.46,-45.37,-55.33,0
8358,-5.84,6.66,10.41,-76.05,-72.69,-33.75,0
8382,-5.79,7.66,11.41,-10.81,-60.55,-10.03,0
8408,-5.15,7.56,10.95,59.13,-40,12.05,0
8432,-4.16,6.7,10.29,117.3,-33.3,31.8,0
8457,-2.99,5.12,9.59,158.71,-12.32,42.41,0
8482,-2.41,3.81,9.65,199.25,14.51,48.27,0
8507,-4.38,3.68,10.42,253.22,17.31,64.79,0
8532,-5.94,2.26,10.91,328.89,5.24,105.03,0
8556,-4.06,-2.65,9.78,413.22,24.2,154.42,0
8582,-5.61,-5.13,9.69,521.08,-32.69,195.22,0
8606,0.36,-13.87,6.44,638.88,-28.54,220.76,0
8631,7.53,-19.65,-0.65,755.83,-105.61,186.44,0
8657,10.86,-19.65,-12.12,793.27,-277.56,44.73,0
8681,1.58,-19.65,-19.22,644.31,-357.38,-118.32,0
8706,-12.38,-15.08,-19.22,298.4,-96.89,-144.23,0
8731,-13.19,-14.24,-19.22,-15.38,191.21,-43.14,0
8756,-6.43,-14.51,-19.22,-182.82,205.18,4.24,0
8782,-3.2,-9.72,-19.22,-215.07,116.46,24.3,0
8806,-0.66,-5.58,-17.8,-204.28,67.92,32.9,0
8831,2.15,-3.87,-17.58,-216.35,46.76,18.08,0
8856,2.79,-3.17,-16.93,-258.42,49.02,-7.22,0
8881,2.68,-2.62,-14.88,-296.53,46.28,-26.73,0
8905,2.69,-2.33,-12.37,-313.91,26.21,-40.33,0
8931,3.37,-1.34,-10.34,-323.36,35.85,-57.04,0
8956,3.17,-0.04,-7.82,-318.85,19.26,-73.62,0
8980,2.67,0.73,-6.41,-315.44,42.56,-89.11,0
9005,2.13,1.16,-4.87,-302.88,29.87,-101.37,0
9030,0.21,2.18,-2.99,-292.2,21.15,-101.24,0
9055,0.12,2.89,-2.11,-275.44,50,-94.48,0
9080,0.03,3.17,-0.86,-256.6,42.68,-97.16,0
9104,-0.59,3.69,-0.13,-238.73,13.53,-99.42,0
9130,-1.1,4.01,0.73,-219.77,15.18,-99.78,0
9154,-2.25,4.09,1.94,-206.47,9.81,-96.98,0
9179,-4.29,4.95,3.25,-193.36,3.78,-83.32,0
9203,-4.5,5.29,3.87,-172.69,9.39,-60.76,0
9229,-4.41,5.27,4.76,-155.38,-11.59,-41.18,0
9254,-4.38,5.76,6.06,-133.06,-41.83,-21.92,0
9278,-4.16,5.24,7.63,-105.8,-50.8,-10.64,0
9303,-4.13,5.59,9.4,-62.15,-63.85,-3.2,0
9328,-4.95,6.1,11.03,-6.48,-51.71,5.1,0
9353,-5.18,6.95,11.49,55.54,-15.13,22.72,0
9378,-4.21,7.43,11.3,115.23,-13.91,41.68,0
9402,-2.9,6.62,10.59,175.17,-27.75,51.31,0
9428,-1.5,5.1,9.46,226.33,-21.59,51.62,0
9452,-0.34,4,8.26,267,1.52,43.33,0
9477,-1.98,4.8,8.36,315.11,28.84,41.86,0
9501,-3.31,3.1,7.91,389.5,35.97,65.7,0
9526,-3.69,-1.35,7.16,476.08,-3.18,96.01,0
9552,-2.36,-7.32,5.6,567.91,-38.3,122.9,0
9576,1.78,-14.12,2.07,670.41,-77.5,129.24,0
9601,6.27,-19.65,-2.97,765.47,-220.98,71.25,0
9626,1.8,-19.65,-9.84,800.04,-427.44,-60.57,0
9651,-6.96,-19.65,-19.22,655.29,-224.58,-144.05,0
9675,-14.06,-19.34,-19.22,348.03,-86.53,-86.43,0
9701,-16.25,-16.4,-19.22,8.16,-26.83,-6.06,0
9726,-8.65,-17.12,-19.22,-197.88,233.77,33.94,0
9750,-5.33,-13.73,-19.22,-271.9,245.6,25.4,0
9776,-3.35,-8.75,-16.38,-272.08,157.25,26.8,0
9800,-1.28,-7.04,-15.56,-274.16,124.26,22.6,0
9826,0.23,-6.18,-14.92,-303.49,136.15,0.1,0
9851,1.83,-4.56,-12.99,-326.72,139.02,-29.48,0
9875,1.48,-3.23,-10.49,-326.84,67.74,-48.44,0
9901,1.49,-2.12,-9.17,-313.91,45.3,-56.67,0
9925,2.03,-0.94,-8.58,-299.95,24.57,-69.23,0
9950,2.13,0.34,-6.69,-287.14,-9.76,-81.18,0
9975,1.23,1.32,-5.51,-271.17,18.9,-87.53,0
10000,1.06,2.43,-5.19,-261.11,59.75,-95.27,0
10025,0.85,3.3,-3.98,-245.92,42.74,-101.12,0
10049,-0.22,3.38,-2.8,-231.29,27.25,-102.04,0
10075,-1.4,3.8,-1.35,-224.28,45,-100.57,0
10099,-1.83,4.7,-0.48,-207.08,58.17,-92.34,0
10124,-3.1,5.31,0.28,-189.64,61.89,-81.73,0
10149,-3.88,5.61,1.71,-166.6,34.45,-66.18,0
10174,-4.99,6.45,3.2,-136.17,6.22,-46.49,0
10199,-4.87,6.27,3.86,-105.5,26.03,-28.26,0
10223,-4.5,6.71,4.14,-70.99,25.12,-10.94,0
10249,-4.51,7.01,4.92,-35.8,-6.28,1.62,0
10274,-4.46,6.8,5.28,3.95,-21.1,16.19,0
10298,-4.03,6.99,5.34,39.26,-17.5,27.05,0
10323,-3.59,6.87,5.43,78.28,-28.54,35.52,0
10347,-3.43,6.12,6.13,121.02,-44.7,40.28,0
10373,-3.79,5.3,7.36,172.97,-87.81,46.25,0
10397,-4.44,4.95,8.18,239.19,-134.27,58.21,0
10422,-4.58,3.48,8.63,313.95,-116.04,73.45,0
10448,-2.72,0.41,7.62,392.36,-45.06,84.24,0
10472,0.26,-3.17,5.15,467.3,-46.47,88.14,0
10497,3.24,-7.18,1.6,545.04,-87.56,72.23,0
10521,4.83,-13.52,-3.78,606.14,-148.42,13.51,0
10547,1.26,-14.43,-14.04,588.46,-80.25,-52.77,0
10571,1.65,-17.29,-19.22,472.42,-34.7,-72.34,0
10597,-3.67,-12.9,-19.22,277.18,-23.48,-76.06,0
10622,-5.05,-11.38,-19.22,65.9,110.73,-58.14,0
10646,-4.36,-10.78,-19.22,-69.77,163.53,-32.53,0
10672,-3.66,-8.65,-19.22,-134.1,76.76,-9.17,0
10696,-3.57,-5.47,-19.22,-160.8,37.98,20.77,0
10722,-1.63,-3.99,-19.22,-186.47,28.11,36.5,0
10747,1.44,-3.82,-19.22,-228.06,3.9,32.11,0
10771,1.4,-3.97,-18.55,-274.95,-12.93,20.58,0
10797,1.5,-4.25,-15.72,-320.07,6.28,7.23,0
10821,2.46,-3.88,-13.5,-349.95,31.76,-10.21,0
10846,2.63,-3.64,-10.45,-366.17,15.36,-33.56,0
10872,2.45,-3.15,-6.78,-375.31,24.39,-55.88,0
10896,1.24,-1.85,-4.01,-365.25,27.86,-73.07,0
10921,0.44,-0.92,-1.51,-345.56,18.41,-81.55,0
10945,-0.63,0.28,0.31,-320.74,31.15,-81.12,0
10971,-0.76,1.51,1.57,-288.73,28.96,-80.21,0
10995,-1.2,1.97,3.28,-253.42,-6.71,-78.14,0
11020,-3.48,3.48,5.01,-213.24,-22.2,-64.84,0
11046,-3.52,4.14,6.21,-167.51,-14.15,-46.43,0
11070,-3.9,5.03,7.72,-116.66,-38.6,-28.38,0
11095,-3.45,4.98,8.62,-57.69,-88.54,-9.6,0
11119,-3.74,5.32,8.59,-8.73,-115.43,7.96,0
11145,-3.4,5.85,8.51,26.82,-62.02,23.21,0
11170,-2.56,6.77,8.96,77.67,-34.52,33.88,0
11194,-2.16,6.36,9.33,132.18,-20,42.66,0
11219,-0.96,5.23,8.18,183.52,-7.63,46.62,0
11244,-0.25,4.65,6.65,227.79,0.73,45.71,0
11269,0.17,4.45,5.61,278.16,-22.14,42.47,0
11293,-0.77,3.35,5.25,334.19,-45.37,39,0
11318,-0.55,0.63,4.18,395.23,-24.52,40.4,0
11344,0.81,-3.03,2.59,454.07,-24.7,38.57,0
11368,0.79,-6.5,0.81,522.67,-40.92,30.89,0
11393,2.21,-12.62,-3.5,613.58,-131.89,16.62,0
11418,1.32,-16.59,-9.58,662.54,-385,-52.65,0
11443,-8.77,-18.32,-19.22,542.42,-329.15,-144.78,0
11469,-11.52,-16.08,-19.22,299.8,76.09,-106.67,0
11493,-5.41,-13.28,-19.22,104.74,377,-46.73,0
11519,-2.68,-12.33,-19.22,-13.49,218.1,-25.88,0
11543,-3.94,-11.13,-19.22,-95.44,0,-18.38,0
11568,-3.91,-7.15,-19.22,-132.02,60.18,1.19,0
11593,-1.71,-5.03,-19.22,-159.77,90.12,9.49,0
11618,0.84,-5.08,-19.22,-217.82,30.85,-6.12,0
11643,1.62,-5.05,-18.2,-270.68,35.61,-29.78,0
11667,1.34,-4.04,-15.85,-298.85,53.47,-48.14,0
11693,2.08,-3.69,-14.21,-316.78,28.84,-63.32,0
11717,2.47,-3.45,-12.59,-331.59,28.41,-83.44,0
11743,2.53,-3.04,-10.39,-335.31,44.45,-101.79,0
11768,1.34,-2.22,-7.86,-333.91,12.13,-111.67,0
11792,0.21,-0.95,-6.14,-330.8,6.7,-108.68,0
11818,0.07,-0.32,-4.48,-321.59,31.95,-107.95,0
11842,-0.58,0.68,-2.16,-300.68,5,-107.1,0
11867,-1.88,1.63,-0.28,-281.53,-10.61,-101,0
11892,-2.43,2.44,1.09,-255.19,7.56,-90.76,0
11917,-3.14,2.65,2.56,-223.79,-8.17,-76.12,0
11942,-4.17,3.33,4.23,-195.01,-52.44,-54.11,0
11966,-4.99,4.25,5.34,-162.14,-59.94,-29.23,0
11992,-4.71,4.12,6.62,-119.46,-51.59,-6.86,0
12016,-5.19,4.8,8.38,-73.3,-68.66,13.27,0
12041,-5.06,5.55,9.31,-20.2,-47.26,34.55,0
12066,-3.84,6.59,9.34,43.95,-5.92,52.47,0
12091,-2.28,6.69,8.45,106.51,0.36,64.24,0
12116,-1.03,6.02,7.38,159.99,-27.63,62.35,0
12140,-0.72,5.47,6.8,212.18,-44.7,50.89,0
12165,-0.89,4.99,6.15,266.88,-55.98,44.49,0
12190,-0.63,4.57,6.01,329.92,-54.58,40.34,0
12215,0.1,2.12,4.91,405.84,-50.06,30.95,0
12240,1.18,-2.51,3.82,482.06,-94.03,9.18,0
12265,1.93,-6.41,2.31,555.84,-173.54,-36.37,0
12290,2.84,-12.86,-0.98,634.25,-242.93,-106.98,0
12314,1.76,-18.54,-5.38,658.21,-274.39,-203.8,0
12340,-4.81,-19.65,-12.22,587.54,-163.3,-271.79,0
12365,-9.86,-19.65,-19.22,449.74,40.61,-236.43,0
12390,-12.31,-17.43,-19.22,268.03,52.8,-154.23,0
12415,-14.69,-15.83,-19.22,28.1,-4.94,-65.09,0
12440,-10.5,-15.92,-19.22,-140.56,219.93,-0.51,0
12465,-7.14,-13.73,-19.22,-206.6,243.47,17.84,0
12489,-5.52,-9.84,-17.29,-220.38,68.9,32.66,0
12515,-4.28,-7.68,-16.13,-220.8,52.43,46.68,0
12540,-2.23,-6.96,-16.46,-236.11,77.62,42.41,0
12565,-0.48,-5.75,-16.43,-259.95,28.29,26.8,0
12590,-0.14,-4.82,-15.52,-280.19,-11.77,15.1,0
12614,0.05,-4.38,-15.1,-304.34,10.79,7.66,0
12640,1.13,-3.93,-14.48,-331.53,8.04,-5.88,0
12665,1.56,-3.52,-11.45,-354.89,-26.77,-22.95,0
12689,1,-2.5,-8.08,-358.79,-33.85,-34.23,0
12714,0.83,-1.23,-6.25,-351.29,-13.91,-38.81,0
12739,1.56,0.15,-4.96,-340.37,20.67,-51.31,0
12764,1.53,0.88,-2.77,-324.83,3.96,-74.96,0
12788,0.52,1.44,-1.1,-298.67,-47.87,-87.34,0
12814,-0.26,1.92,-0.38,-276.78,-38.36,-90.57,0
12839,-1,2.11,0.32,-263.97,-23.24,-95.39,0
12863,-2.54,2.49,1.77,-250.13,-32.26,-99.35,0
12889,-3.36,2.73,3.22,-234.77,-27.32,-96.37,0
12913,-4.92,3.44,4.79,-205.93,-14.82,-81.24,0
12938,-6.46,3.96,6.83,-167.82,-9.52,-62.59,0
12963,-7.64,4.08,8.48,-122.33,-37.44,-35.7,0
12988,-7.71,4.1,10.1,-66.48,-32.99,-2.34,0
13013,-7.71,3.95,11.26,-9.16,-18.05,26.86,0
13037,-6.84,4.15,11.34,52.24,-0.07,49.3,0
13062,-5.57,4.56,10.69,113.71,-6.59,66.99,0
13087,-3.67,4.73,10.03,171.51,-12.81,73.2,0
13112,-2.17,4.11,9.51,227.12,-16.04,66.38,0
13137,-2.72,3.28,9.26,276.08,-2.5,52.35,0
13162,-4.46,3.08,9.51,335.17,35,58.02,0
13187,-4.7,0.73,8.59,414.8,53.41,90.89,0
13211,-2.94,-3.79,6.52,499.74,43.1,125.7,0
13236,1.13,-9.66,2.76,585.96,10.06,143.27,0
13262,4.77,-15.98,-1.49,651.44,-38.78,109,0
13286,5.62,-19.65,-6.78,695.71,-115.92,39.24,0
13312,2.24,-19.65,-15.34,662.6,-158.36,-52.34,0
13336,-2.01,-19.65,-19.22,534.68,-113.36,-94.42,0
13362,-10.03,-16.67,-19.22,307.24,-124.52,-82.77,0
13386,-12.32,-15.44,-19.22,82,77.62,-23.5,0
13411,-6.58,-15.93,-19.22,-64.16,248.22,17.17,0
13437,-4.61,-12.41,-19.22,-157.39,131.03,16.32,0
13461,-4.64,-7.62,-19.22,-195.68,71.82,35.95,0
13487,-2.31,-6.19,-19,-219.64,119.45,45.4,0
13511,0.91,-6.25,-19.22,-255.13,94.2,24.91,0
13536,1.84,-5.5,-18.76,-297.2,62.31,-2.47,0
13562,1.92,-4.98,-16.6,-334.16,53.41,-22.65,0
13586,2.08,-4.35,-14.08,-358.73,42.25,-36.43,0
13611,2.99,-4.5,-11.87,-380.19,46.64,-55.94,0
13636,3.8,-3.72,-8.84,-381.72,36.58,-81.73,0
13661,2.64,-3.35,-6.18,-375.86,-0.74,-104.6,0
13685,1.05,-2.28,-4.63,-372.08,28.04,-115.39,0
13711,0.8,-1.14,-3.03,-355.25,59.87,-124.78,0
13736,-0.24,-0.73,-1.14,-333.3,-4.64,-132.16,0
13760,-2.35,0.7,1.16,-309.58,-40.13,-121.55,0
13786,-3.07,1.27,2.74,-286.29,-11.35,-103.68,0
13810,-4.02,2.02,4.27,-258.24,13.47,-89.54,0
13835,-4.8,2.94,5.57,-216.47,15.18,-75.82,0
13861,-4.92,3.23,7.06,-173.49,-34.76,-60.03,0
13885,-4.64,3.03,9.01,-125.26,-60,-39.78,0
13910,-5.64,4.17,10.98,-66.72,-58.05,-24.17,0
13934,-5.98,4.99,12.83,4.32,-68.66,-4.9,0
13960,-5.85,5.55,13.71,87.61,-73.97,18.94,0
13984,-4.38,4.74,12.8,165.78,-32.08,39.49,0
14009,-2.95,3.34,11.13,226.63,-8.24,51.25,0
14035,-1.89,2.83,9.94,276.2,-14.88,53.57,0
14059,-1.57,2.19,8.76,331.51,3.29,56.25,0
14084,-1.88,0.97,7.71,393.4,24.75,62.84,0
14108,-0.49,-2.34,5.88,469.13,6.03,77.78,0
14134,2.3,-6.63,3.04,540.96,-45.74,65.7,0
14159,3.34,-11.01,-0.33,599.86,-103.66,23.88,0
14183,4.41,-16.19,-3.87,657.36,-143.05,-34.84,0
14209,-1,-19.5,-12.01,649.74,-135.31,-104.48,0
14233,0.51,-19.65,-19.22,545.96,47.62,-125.39,0
14259,-4.46,-18.77,-19.22,375.78,-67.32,-117.1,0
14283,-10.34,-16.92,-19.22,145.47,-107.08,-100.03,0
14309,-11.44,-14.74,-19.22,-36.41,130.91,-39.54,0
14334,-9.19,-11.83,-19.22,-149.16,149.38,12.84,0
14359,-6.43,-8.42,-19.22,-212.94,49.39,49.3,0
14384,-2.68,-7.19,-18.09,-235.62,78.96,61.56,0
14408,0.43,-6.39,-18.31,-259.34,90.48,39.3,0
14434,1.64,-5.56,-18.27,-286.53,17.43,9.36,0
14459,1.04,-4.94,-17.27,-317.2,-21.59,-7.22,0
14483,0.73,-4.65,-16.25,-355.01,2.19,-12.34,0
14508,0.46,-4.22,-12.4,-384.58,-11.89,-16.86,0
14533,0.51,-3.63,-9.04,-390.62,-28.78,-16.67,0
14558,1.62,-2.45,-6.38,-383,-5.92,-24.9,0
14583,1.69,-1.68,-4.06,-364.95,-26.41,-39.96,0
14608,1.19,-0.57,-2.49,-349.89,-27.81,-52.04,0
14633,0.76,-0.47,-1.01,-337.14,-19.21,-63.93,0
14657,-0.1,0.12,0.67,-321.84,-19.27,-72.65,0
14683,-1.18,1.12,2.01,-303.06,-21.28,-76.67,0
14707,-2.2,1.5,3.64,-281.17,-20.55,-79.66,0
14732,-3.52,2.27,5.69,-247.51,-25.13,-75.09,0
14758,-4.76,2.54,7.23,-212.69,-35.74,-65.03,0
14782,-5.49,2.97,9,-169.34,-20.67,-50.27,0
14807,-6.39,3.38,10.98,-119.1,-61.22,-25.94,0
14831,-6.39,3.49,12.61,-71.05,-96.34,0.83,0
14857,-5,3.8,13.44,-6.66,-25.43,22.17,0
14882,-4.11,4.26,13.35,54.68,8.53,30.89,0
14906,-3.54,4.56,13.16,123.22,10.61,41.86,0
14932,-2.35,4.38,11.22,187.06,-24.21,46.44,0
14956,-1.28,3.69,9.39,236.63,-25.86,40.64,0
14981,-0.81,3.13,7.86,274.92,-3.6,31.07,0
15005,-1.17,2.77,7.21,312.85,5.79,23.69,0
15031,-2.06,2.69,7.29,365.84,28.35,26.5,0
15056,-0.7,0.83,5.55,447.73,24.45,40.28,0
15080,0.05,-3.8,3.4,520.59,-0.74,34,0
15105,1.51,-9.08,0.69,604.68,-68.6,19.18,0
15130,1.53,-16.43,-4.07,673.27,-152.56,-31.25,0
15155,-3.26,-16.86,-10.26,688.27,-122.2,-75.82,0
15181,4.35,-19.65,-18.22,641.38,140.36,-89.29,0
15205,-7.36,-19.65,-19.22,501.2,-126.53,-83.93,0
15230,-11.07,-16.23,-19.22,269.31,-154.09,-65.64,0
15255,-11.95,-13.63,-19.22,60.41,15.67,-21.12,0
15280,-9.33,-12.34,-19.22,-97.63,199.2,18.63,0
15305,-5.29,-10.04,-19.22,-180.5,137.8,29.73,0
15330,-3.52,-7.73,-18.77,-214.89,55.12,32.23,0
15356,-2.33,-6.74,-17.14,-236.72,69.08,27.35,0
15380,-1.11,-6.03,-16.81,-263.67,81.52,12.9,0
15405,-0.28,-6.02,-16.4,-295.99,54.51,-5.94,0
15430,0.12,-6,-14.93,-326.72,43.78,-18.87,0
15455,-0.04,-5.73,-13.19,-345.44,50.48,-27.04,0
15480,0.57,-4.66,-11.72,-355.5,53.78,-36,0
15505,1.94,-3.65,-10.34,-365.01,17.98,-54.48,0
15530,0.7,-2.88,-6.63,-367.33,-10.55,-63.32,0
15554,-0.49,-1.95,-3.67,-365.37,-24.76,-63.32,0
15580,-0.58,-0.16,-1.67,-353.73,15.42,-62.1,0
15604,-0.46,0.62,-0.34,-336.35,41.21,-72.71,0
15629,-1.35,1.49,0.83,-313.91,25.61,-81.06,0
15654,-2.42,1.71,2.2,-290.13,12.74,-84.54,0
15679,-3.68,2.61,4.06,-260.56,1.89,-79.84,0
15704,-4.49,3.66,5.5,-228.85,-22.08,-67.59,0
15728,-4.53,4.3,7.59,-183.73,-4.52,-51.06,0
15754,-5.41,4.96,9.22,-127.15,-41.59,-30.57,0
15779,-5.41,5.41,10.98,-73,-47.26,-9.11,0
15803,-4.9,5.44,12.27,-9.52,-24.88,7.9,0
15828,-4.63,6.15,12.97,59.93,-39.21,20.28,0
15853,-4.07,5.97,12.9,128.95,-36.89,31.74,0
15878,-2.8,5.42,11.75,195.23,2.01,38.51,0
15902,-1.77,4.44,10.75,255.41,8.17,38.57,0
15928,-1.85,3.15,9.77,311.08,4.63,34.12,0
15953,-1.77,1.5,9.01,368.83,56.76,39.18,0
15977,-1.64,-1.06,7.92,442.24,57.86,54.42,0
16002,-0.08,-5.35,5.71,532.06,13.17,69.18,0
16027,3.08,-11.93,1.96,625.53,-47.32,62.05,0
16052,3.95,-18.73,-1.96,686.26,-89.7,8.75,0
16077,3.64,-19.65,-7.68,733.88,-187.75,-56.79,0
16102,-5.48,-19.65,-14.99,689.37,-321.53,-152.34,0
16127,-11.9,-19.65,-19.22,507.48,-79.21,-159.41,0
16152,-16,-19.65,-19.22,262.67,-28.54,-71.06,0
16177,-14.43,-19.65,-19.22,9.68,32.37,-7.71,0
16201,-10.38,-16.4,-19.22,-142.75,185.48,25.58,0
16227,-7.5,-11.44,-19.22,-212.51,161.82,43.02,0
16252,-4.49,-8.68,-16.98,-227.27,60.12,52.41,0
16277,-3.54,-8.18,-16.36,-237.27,48.47,49.24,0
16302,-2.7,-6.81,-16.29,-265.38,85.24,40.4,0
16326,-1.44,-5.75,-16.31,-292.57,66.09,30.46,0
16352,-1.47,-5.65,-15.64,-323.06,13.72,29,0
16377,-1.15,-5.64,-13.74,-351.11,7.13,32.41,0
16401,-0.4,-5.66,-12.18,-384.52,47.37,26.99,0
16427,0.32,-4.99,-9.24,-405.37,49.14,12.78,0
16451,0.87,-4.03,-6.3,-405.8,33.78,-4.66,0
16476,0.38,-2.45,-4.37,-399.46,50.79,-22.16,0
16501,0.24,-1.48,-2.1,-391.11,68.59,-44.23,0
16526,0.47,-0.74,-0.4,-371.96,66.95,-63.56,0
16551,-0.33,0.05,1.22,-348.85,56.28,-82.16,0
16575,-1.11,0.95,2.96,-319.83,29.45,-93.07,0
16601,-2.31,1.95,4.6,-283.12,-0.68,-93.13,0
16625,-3.62,2.69,6.64,-240.8,-42.08,-83.32,0
16650,-4.88,3.86,9.17,-194.77,-57.75,-70.7,0
16676,-6.12,4.39,12.06,-130.99,-20,-46.85,0
16700,-6.18,4.56,13.64,-53.37,-4.27,-19.48,0
16725,-5.63,4.12,14.35,22.67,-13.24,0.77,0
16749,-5.21,3.8,14.16,97.73,-28.17,19.97,0
16775,-4.17,3.6,12.98,169.8,-73.05,35.77,0
16799,-3.01,2.37,11.27,232.85,-51.28,37.17,0
16824,-1.84,1.66,9.59,289.86,-18.17,34,0
16850,-1.5,0.83,7.95,347.48,-12.75,31.5,0
16874,-0.78,-0.41,5.7,403.82,-42.14,31.8,0
16899,-1.19,-1.96,4.07,451.26,-23.24,24.18,0
16924,-0.31,-4.44,2.08,511.32,7.86,29.55,0
16949,1.84,-8.82,-1.65,583.82,-43.3,27.6,0
16974,2.11,-14.06,-6.05,628.09,-135.8,-20.76,0
16998,1.44,-18.4,-10.8,631.08,-74.7,-79.48,0
17024,3.4,-18.78,-13.98,632.66,-123.66,-128.32,0
17048,-6.93,-19.65,-19.22,544.92,-208.11,-179.11,0
17074,-13.49,-19.65,-19.22,379.5,-83.36,-162.34,0
17098,-17.16,-19.65,-19.22,167.73,-4.27,-86.12,0
17124,-17,-18.13,-19.22,-56.48,62.43,-7.34,0
17149,-14.31,-14.42,-19.22,-207.33,153.29,63.39,0
17174,-8.43,-13.67,-19.22,-294.89,179.75,99.85,0
17199,-3.3,-13.9,-19.22,-361.66,181.88,82.11,0
17224,-1.65,-12.6,-19.22,-420.07,159.99,48.88,0
17249,-1.3,-10.91,-16.75,-465.31,148.53,28.08,0
17274,1.46,-9.93,-14.09,-492.2,149.32,1.62,0
17299,3.24,-9.13,-11.15,-500.92,78.71,-33.56,0
17324,3.2,-7.89,-6.49,-494.09,24.39,-62.34,0
17348,0.95,-6.4,-3.86,-477.63,47.5,-88.26,0
17374,0.87,-4.5,-0.5,-450.25,129.63,-118.38,0
17399,0.33,-3.35,1.58,-407.14,83.29,-142.71,0
17423,-1.64,-2.69,3.55,-366.72,29.87,-150.88,0
17449,-3.03,-1.1,5.33,-326.41,37.19,-143.68,0
17473,-3.79,-0.06,6.79,-277.33,27.07,-135.45,0
17498,-4.94,1.27,8.55,-218.79,-16.22,-121.37,0
17523,-6.21,1.93,10.14,-159.46,-57.99,-96.85,0
17548,-7.06,3.06,10.93,-97.27,-41.04,-69.54,0
17573,-7.71,4.21,11.83,-31.84,-15.67,-40.03,0
17598,-8.13,4.58,12.41,38.89,-32.08,-4.6,0
17623,-7.77,4.38,12.7,106.82,-46.96,29.42,0
17647,-6.23,4.18,12.77,173.77,-37.08,59.91,0
17673,-4.37,3.7,12.35,240.84,-10.49,75.58,0
17698,-3.12,2.58,11.37,314.07,-2.75,80.77,0
17722,-3.17,1.07,10.21,384.74,-10.31,83.81,0
17748,-2.05,-1.04,7.79,461.08,-10.55,100.28,0
17772,0.15,-4.9,4.99,534.68,-42.87,103.14,0
17797,2.49,-8.78,1.83,604.01,-97.5,79.24,0
17822,4.27,-14.61,-1.14,666.99,-163.05,18.39,0
17847,6.15,-19.65,-3.99,714.55,-251.04,-80.82,0
17872,3.19,-19.65,-6.26,716.26,-428.23,-227.1,0
17897,-5.6,-19.65,-7.09,638.46,-477.26,-362.58,0
17922,-14.28,-19.65,-10.1,501.2,-270.86,-391.49,0
17947,-20.6,-19.65,-15.08,343.09,-102.44,-294.11,0
17972,-20.6,-19.65,-18.69,143.03,31.28,-123.87,0
17998,-20.6,-19.65,-19.22,-43.79,170.48,41.38,0
18022,-14.26,-18.56,-16.73,-176.6,261.94,119.67,0
18048,-9.1,-15.52,-15.12,-244.58,208.23,122.72,0
18072,-7.01,-13.42,-14.78,-283.3,166.21,107.23,0
18098,-6.08,-11.6,-15.64,-318.97,156.88,94.24,0
18122,-4.35,-11.38,-16.92,-363.48,120.3,77.35,0
18148,-3.46,-12.43,-16.43,-416.78,98.53,59.85,0
18173,-3.06,-10.84,-13.61,-462.32,84.57,51.86,0
18198,-2.01,-10.43,-10.79,-485.5,87.01,43.81,0
18223,-1.08,-9.14,-8.02,-474.09,83.1,31.68,0
18247,-1.35,-6.28,-5.57,-442.26,55.85,17.78,0
18273,-2.17,-3.88,-3.66,-411.9,45.48,15.16,0
18298,-0.87,-2.47,-3.35,-389.28,56.7,8.82,0
18322,0.1,-0.94,-1.41,-368.24,69.02,-7.4,0
18347,-0.51,0.51,-0.14,-339.58,34.81,-20.64,0
18372,-0.77,1.47,0.89,-314.28,19.45,-28.32,0
18397,-0.9,1.73,2.4,-290.56,24.69,-38.01,0
18421,-1.69,2.94,4.05,-259.7,28.84,-48.87,0
18446,-2.31,4.14,5.68,-218.61,9.93,-50.94,0
18472,-2.58,4.28,6.7,-182.51,9.32,-49.78,0
18496,-2.96,5.13,7.86,-148.91,39.63,-51.73,0
18521,-3.29,6.13,9.57,-100.87,38.11,-51.85,0
18546,-4.27,6.71,10.6,-46.6,0.54,-44.72,0
18571,-4.71,6.38,11.98,4.07,-9.7,-29.11,0
18596,-6.21,7.45,11.57,59.5,-42.56,-6.37,0
18620,-5.77,6.98,11.49,109.38,-26.16,14.61,0
18646,-5.1,5.91,10.87,164.8,29.08,37.29,0
18670,-4.69,5.5,9.75,212.79,31.4,56.44,0
18695,-3.96,5.22,8.34,266.45,22.68,78.75,0
18720,-2.92,3.13,7.11,322.67,8.84,94.91,0
18745,-2.64,0.9,6.11,374.13,22.31,107.78,0
18770,-0.23,-1.64,3.94,440.9,19.63,125.34,0
18794,1.61,-4.98,1.61,501.38,-38.72,120.22,0
18820,2.68,-8.64,-1.23,555.29,-123.66,87.66,0
18844,4.21,-11.25,-3.88,598.34,-187.62,23.45,0
18870,2.12,-16.11,-8.17,607.42,-212.5,-58.38,0
18895,-4.54,-16.21,-16.71,531.57,-114.64,-119.6,0
18919,-3.63,-16.45,-19.22,388.7,103.23,-102.59,0
18945,-9.38,-13.27,-19.22,207.55,-30.74,-52.59,0
18969,-9.65,-12.86,-19.22,33.4,26.89,-14.78,0
18995,-6.63,-12.55,-19.22,-80.68,169.45,11.13,0
19019,-4.5,-9.63,-19.22,-158.36,102.43,17.72,0
19045,-3.6,-6.28,-19.22,-200.68,27.74,30.03,0
19070,-1.23,-5.69,-19.22,-231.35,64.32,34.24,0
19094,1.76,-5.89,-19.22,-279.95,55.79,12.05,0
19120,1.61,-5.97,-19.22,-342.63,25,-11.37,0
19144,0.39,-5.58,-15.51,-395.68,18.23,-16.43,0
19169,0.75,-5.43,-11.93,-423.67,41.89,-15.82,0
19195,1.57,-5.02,-9.42,-428.54,56.58,-26.43,0
19219,2.62,-4.21,-5.99,-424.52,30.85,-48.99,0
19244,1.71,-3.68,-3.19,-415.56,11.64,-66.67,0
19269,1.04,-2.39,-0.67,-396.59,39.81,-79.11,0
19294,0.37,-1.79,0.92,-374.09,35.85,-93.99,0
19319,-0.53,-0.65,2.35,-349.46,20.42,-106.31,0
19343,-1.73,0.81,4.11,-319.16,28.78,-114.54,0
19369,-2.62,1.65,5.78,-278,19.81,-112.4,0
19393,-4.79,2.46,7.34,-239.22,-26.53,-95.51,0
19418,-4.89,3.15,8.73,-196.72,-22.2,-74.48,0
19443,-5.01,3.59,10.23,-147.02,-28.24,-56.25,0
19468,-5.39,3.34,11.85,-99.71,-48.17,-38.99,0
19493,-5.43,3.57,13.5,-47.09,-64.45,-23.87,0
19518,-5.44,4.15,14.32,16.88,-46.89,-8.56,0
19543,-5.15,5.03,14.58,84.8,-18.3,9.55,0
19567,-4,4.99,13.76,150.23,-7.63,25.28,0
19593,-3.16,4.61,11.84,210.29,-13.85,34.73,0
19618,-1.84,4.09,9.84,257.24,-17.69,35.71,0
19642,-0.51,3.4,7.5,294.13,-8.24,25.95,0
19667,-0.34,2.23,5.32,315.29,4.87,9.85,0
19692,-1.5,2.57,3.87,329.25,24.26,4.91,0
19717,-2.04,2.83,3.19,358.83,59.57,19.61,0
19741,-0.31,1.31,2.48,410.35,58.47,35.64,0
19766,0.6,-2.1,0.97,474.68,-1.71,36.01,0
19792,1.77,-7.07,-0.75,547.42,-38.6,17.6,0
19816,3.37,-9.96,-3.89,612.18,-93.6,-16.73,0
19841,2.27,-19.19,-8.67,632.12,-34.03,-65.33,0
19866,0,-19.62,-14.53,589.43,-52.99,-101.98,0
19891,-3.33,-19.43,-19.22,502.06,-116.41,-125.63,0
19915,-8.54,-16.99,-19.22,360.29,-194.7,-131.67,0
19941,-12.63,-15.6,-19.22,188.71,-37.5,-92.22,0
19966,-11.9,-16,-19.22,35.54,82.13,-25.09,0
19991,-10.76,-15.63,-19.22,-91.35,66.21,21.74,0
20016,-9.28,-12.24,-19.22,-180.38,78.65,60.46,0
20041,-6.61,-10.89,-19.22,-245.13,85.6,86.44,0
20066,-3.34,-11.26,-19.22,-309.4,83.29,83.81,0
20091,-1.85,-10.62,-19.22,-373.18,65.6,67.84,0
20116,-1.76,-9.11,-15.51,-417.14,54.32,57.23,0
20141,-0.69,-7.67,-12.61,-437.14,79.45,45.83,0
20166,0.92,-6.36,-9.98,-435.5,57.98,24.73,0
20191,0.96,-5.13,-7.35,-420.31,16.82,4.79,0
20216,0.82,-3.58,-5.39,-400.13,10.36,-8.5,0
20240,0.77,-2.04,-3.35,-379.58,-10.86,-18.2,0
20266,0.54,-0.86,-1.89,-361.29,-14.39,-26.79,0
20290,0,-0.13,-0.44,-343.06,-17.32,-33.75,0
20315,-0.39,0.95,1.52,-321.72,-18.24,-38.32,0
20339,-0.52,2.11,2.9,-290.8,-32.26,-43.26,0
20365,-1.66,2.31,4.5,-259.64,-71.53,-45.88,0
20390,-1.04,3.15,6.56,-222.82,-92.2,-39.29,0
20414,-3.44,4.76,9.79,-175.32,-109.15,-27.34,0
20440,-2.58,5.3,11.25,-122.02,-36.59,-18.38,0
20464,-2.35,6.29,11.94,-63.06,-11.83,-16.18,0
20489,-1.67,6.12,12.74,-3.24,-33.6,-17.22,0
20515,-2.06,6.06,12.76,56.21,-67.2,-19.54,0
20539,-1.5,5.63,11.03,105.54,-35.8,-20.51,0
20564,-1.03,5.87,9.58,139.86,-9.64,-27.28,0
20589,-1.46,6.02,8.73,175.66,-16.16,-32.53,0
20614,-2.13,5.32,8.07,216.63,-23.36,-36,0
20638,-2,4.72,6.74,259.5,-30.67,-35.39,0
20663,-1.78,3.94,5.3,301.08,-45.19,-39.6,0
20689,-2.44,2.43,4.62,341.94,-59.76,-47.83,0
20713,-3.3,0.73,4.06,386.81,-60.06,-50.21,0
20738,-2.39,-1.89,1.94,443.34,-38.17,-49.23,0
20763,-0.36,-5.88,-0.55,491.32,-55.19,-66,0
20788,-0.38,-9.37,-3.49,518.76,-120.19,-104.17,0
20813,-1.9,-12.22,-6.64,516.93,-130.67,-150.45,0
20838,-5.29,-15.58,-11.47,470.65,-67.75,-187.1,0
20863,-9.89,-13.38,-14.67,386.45,16.34,-170.02,0
20888,-11.04,-11.66,-19.09,297.48,-26.28,-125.15,0
20913,-13.11,-12.26,-19.22,173.95,-85.13,-88.81,0
20938,-13.48,-12.54,-19.22,53.1,63.04,-53.62,0
20963,-11.57,-12.96,-19.22,-30.87,170.91,-36.92,0
20988,-12.03,-10.6,-19.22,-77.21,85.6,-19.42,0
21013,-13.81,-8.46,-19.22,-102.76,5.67,25.58,0
21038,-13.25,-8.54,-19.22,-134.58,-7.14,83.63,0
21063,-10.73,-9.12,-19.22,-190.56,20.36,119.85,0
21088,-9.09,-8.62,-19.22,-258,29.02,140.4,0
21113,-7.36,-8.59,-16.68,-324.03,47.25,154.3,0
21138,-5.07,-8.09,-13.57,-370.92,86.15,155.7,0
21163,-3.38,-6.93,-10.24,-390.56,78.29,146.25,0
21188,-2.37,-5.35,-7.58,-393.85,72.01,131.62,0
21213,-0.97,-4.57,-5.05,-395.68,92.98,107.23,0
21237,-0.4,-2.76,-2.15,-380.37,48.17,90.4,0
21263,-0.36,-1.24,-1.04,-348.97,-16.96,82.72,0
21288,0.63,-0.63,0.63,-315.8,-88.78,79.73,0
21312,-0.37,1.83,2.67,-284.58,-78.78,79.06,0
21337,0.12,2.64,4.4,-261.23,37.8,67.84,0
21362,1.08,3.48,6.18,-223.12,35.24,51.5,0
21387,0.21,5.03,8.41,-177.94,-18.24,45.4,0
21412,0.55,5.25,9.42,-127.45,26.28,43.69,0
21437,1.92,5.64,10.2,-73.67,14.51,35.52,0
21462,2.24,6.13,12.02,-14.89,-57.56,18.21,0
21486,2.35,6.4,12.27,53.58,-40.92,-0.45,0
21511,2.93,6.71,11.02,115.72,-7.57,-19.23,0
21536,3.69,6.46,8.86,172.91,-45.74,-43.2,0
21561,4.2,5.63,6.59,216.33,-76.65,-76.61,0
21586,4.17,4.65,4.59,238.7,-56.65,-113.2,0
21611,3.45,3.89,3.34,254.62,-42.2,-147.59,0
21636,2.39,2.91,2.77,278.28,-37.87,-175.09,0
21660,1.6,1.73,1.99,310.96,-25,-199.78,0
21686,0.93,-1.03,1.25,356.39,-11.47,-224.96,0
21711,0.77,-4.92,0.03,404.19,0.97,-247.65,0
21735,0.9,-9.86,-1.93,439.92,4.51,-273.62,0
21761,0.06,-14.99,-4.67,473.4,-31.77,-304.35,0
21785,-5.35,-17.7,-8.53,467.97,-113.05,-331.18,0
21810,-12.59,-19.15,-14.15,397.12,-102.93,-318.56,0
21835,-19.87,-18.39,-19.11,276.14,-49.64,-238.99,0
21860,-20.6,-17.75,-19.22,124.19,101.15,-113.13,0
21886,-18.82,-19.42,-19.22,-23.49,157.98,-18.87,0
21910,-18.35,-16.96,-19.22,-139.34,101.28,39.36,0
21936,-17.69,-11.61,-19.22,-199.95,70.06,115.03,0
21960,-13.3,-9.73,-17.31,-224.52,48.29,176.92,0
21986,-8.88,-10.7,-17.42,-255.44,21.7,197.72,0
22011,-5.8,-9.67,-17.45,-301.29,34.51,194.91,0
22036,-4.31,-8.36,-15.4,-345.62,20.06,187.05,0
22061,-2.96,-7.35,-11.94,-376.47,13.41,179.85,0
22085,-2.28,-5.89,-8.75,-388.79,45.79,167.17,0
22111,-1.14,-4.11,-6.3,-386.53,61.64,146.98,0
22136,0.1,-3.18,-3.92,-368.97,-5.8,128.69,0
22160,-0.27,-2.26,-1.97,-348.18,-40.8,119.12,0
22186,-0.35,-1.1,-0.51,-340.25,45.6,109.55,0
22210,0.25,-0.17,1.11,-334.89,73.84,91.92,0
22235,-0.3,0.12,3.36,-330.25,114.08,72.9,0
22260,-0.16,1.46,4.69,-317.2,199.51,51.25,0
22285,-0.16,2.61,6.73,-281.96,168.53,29.12,0
22310,0.17,3.74,8.47,-235.99,107.56,5.58,0
22335,-0.17,4.53,10.63,-170.68,28.23,-10.15,0
22360,-0.73,5.17,12.69,-108.12,25.97,-21.98,0
22384,-0.94,6.3,15.13,-28.73,12.43,-32.16,0
22410,-1.16,6.07,16.7,66.69,-18.91,-41.06,0
22435,-2.21,5.95,16.23,161.94,-42.44,-40.94,0
22459,-1.92,5.02,14.18,243.28,-31.89,-36.86,0
22485,-0.77,4.2,11.2,307.06,-31.77,-40.21,0
22509,-0.29,3.1,8.57,359.25,-46.59,-54.42,0
22534,-0.84,1.81,6.93,411.57,-77.02,-73.81,0
22559,-0.43,-0.76,5.3,468.52,-86.1,-94.35,0
22584,0.25,-4.52,2.8,519.07,-69.94,-121.92,0
22609,2.12,-9.11,-0.1,553.64,-52.56,-161.85,0
22634,2.8,-14.53,-3.04,568.64,-55.43,-218.01,0
22659,2.3,-19.4,-5.66,569.13,-47.5,-271,0
22683,-2.21,-19.65,-9.48,546.2,-122.69,-309.47,0
22709,-9.21,-19.65,-11.17,459.37,-286.89,-321.91,0
22734,-18.05,-19.24,-12.86,319.62,-132.2,-283.93,0
22759,-17.06,-18.92,-18.03,202.06,113.17,-178.13,0
22784,-17.69,-19.65,-19.22,80.23,75.48,-78.62,0
22809,-16.61,-19.65,-19.22,-38.91,86.21,-7.04,0
22834,-17.59,-16.26,-18.29,-119.04,112.07,68.33,0
22859,-14.54,-13.08,-16.14,-167.14,96.64,135.4,0
22884,-10.74,-12.98,-14.88,-196.72,63.65,175.52,0
22910,-7.09,-11.72,-14.48,-226.05,50.67,190.95,0
22934,-5.61,-10.52,-13.87,-260.25,2.62,194.48,0
22959,-4.63,-9.4,-12.39,-301.29,19.87,197.23,0
22984,-3.93,-9.58,-11.23,-344.16,65.42,195.03,0
23009,-2.59,-9.53,-10.1,-392.63,117.68,182.53,0
23035,-2.59,-8.17,-7.94,-427.69,100.24,169.06,0
23059,-1.39,-6.47,-4.45,-439.95,69.45,156.98,0
23085,-1.02,-4.53,-1.84,-425.5,115.97,137.53,0
23109,0.73,-3.07,-1.47,-415.56,168.35,98.51,0
23134,1.31,-1.25,0.61,-395.86,107.49,53.63,0
23160,-0.51,0.96,3.18,-356.53,18.96,31.92,0
23184,-1.47,3,4.9,-309.34,17.8,23.63,0
23209,-1.44,3.87,6.04,-264.28,15,20.16,0
23233,-1.24,4.52,7.79,-219.52,19.32,13.88,0
23259,-0.94,5.93,10.14,-163.24,5.36,6.32,0
23283,-0.73,6.85,12.19,-97.08,-0.98,-5.03,0
23308,-0.53,7.18,13.38,-17.76,-17.5,-10.21,0
23333,-0.7,6.97,13.5,56.57,-26.04,-10.64,0
23358,0.11,6.89,12.9,130.66,-43.66,-13.44,0
23383,1.28,5.98,10.81,192.06,-47.93,-25.57,0
23407,2.24,5.05,8.14,234.56,-36.16,-46.43,0
23433,2.61,4.44,6.4,270.29,-32.87,-71.98,0
23458,1.4,3.57,5.84,315.17,-73.48,-99.35,0
23482,-0.18,1.74,5.25,371.33,-82.32,-120.94,0
23508,-0.09,-1.58,3.31,431.26,-51.35,-138.56,0
23532,0.7,-5.68,0.74,484.98,-27.75,-159.9,0
23557,0.34,-9.91,-1.52,522.54,-30.43,-185.15,0
23582,-1.15,-13.5,-3.99,542.97,-59.45,-206.85,0
23607,-3.76,-16.01,-8.09,532.18,-73.54,-215.39,0
23632,-5.51,-16.32,-13.51,481.93,-35.74,-211.73,0
23657,-8.93,-16.02,-17.78,386.2,-156.95,-197.46,0
23682,-13.43,-15.04,-19.09,237.79,-117.14,-162.95,0
23707,-14.46,-15.94,-19.22,107.79,58.47,-110.88,0
23732,-11.7,-17.96,-19.22,4.5,148.71,-74.11,0
23758,-12.98,-18.07,-19.22,-60.13,48.29,-50.09,0
23782,-14.82,-14.16,-18.84,-106.23,29.2,2.35,0
23808,-13.95,-12.2,-17.21,-143.73,-21.83,70.52,0
23832,-11.11,-12.27,-16.65,-184.58,-9.76,124.85,0
23858,-8.86,-11.66,-15.8,-231.78,43.84,157.78,0
23882,-7.14,-10.48,-15.09,-281.29,73.96,173.94,0
23908,-5.13,-9.96,-14.7,-332.75,70.91,181.56,0
23933,-4.14,-9.35,-12.53,-378.48,54.93,189.42,0
23957,-2.36,-9.5,-9.72,-413.91,73.9,187.96,0
23983,-0.38,-8.67,-7.27,-438.85,79.81,168.69,0
24007,0.84,-7.12,-4.9,-448.42,81.64,134.85,0
24032,1.02,-5.18,-2.48,-441.29,72.74,96.31,0
24058,0.73,-3.68,-1.01,-431.96,104.93,57.23,0
24082,0.01,-2.43,1.31,-412.2,43.53,32.47,0
24107,-0.61,-0.74,3.79,-382.02,19.87,22.6,0
24132,-1.06,-0.09,6.3,-352.63,42.92,9.18,0
24157,-2.23,1.69,8.66,-307.94,97.8,2.53,0
24181,-4.23,3.18,9.74,-248.55,100.54,3.39,0
24206,-2.96,4.13,11.43,-183.91,68.84,9.49,0
24232,-3.03,4.7,13.09,-118.97,8.41,18.45,0
24256,-1.47,6.05,14.21,-47.88,5.85,18.51,0
24281,-0.82,5.94,15.35,35.47,-22.81,14.79,0
24305,-0.43,6.36,15.2,123.1,-52.63,7.11,0
24331,0.52,5.49,13.66,203.46,-68.48,-7.22,0
24356,0.85,4.81,11.65,267.06,-78.36,-25.39,0
24380,0.77,3.78,9.41,313.83,-64.09,-40.51,0
24406,1.66,3.15,7.41,355.96,-39.33,-54.05,0
24430,1.45,2.25,5.71,401.75,-43.48,-75.03,0
24455,1.68,0.27,3.86,452.42,-38.91,-97.4,0
24479,1.9,-4.04,1.44,505.96,-39.21,-122.34,0
24505,1.22,-7.97,-0.64,545.71,-76.16,-155.39,0
24530,-0.74,-12.44,-3.71,564.56,-47.56,-189.05,0
24555,-1.63,-17.01,-8.22,565.59,52.25,-192.95,0
24580,-2.88,-17.92,-14.31,533.27,35.3,-181.85,0
24604,-7.67,-17.49,-19.22,435.71,-97.75,-155.39,0
24630,-14.71,-15.24,-19.22,272.91,-104.52,-107.95,0
24655,-15.14,-15.13,-19.22,117.61,82.19,-21.79,0
24680,-10.6,-15.42,-19.22,-21.96,192.01,34.36,0
24705,-7.8,-13.38,-19.22,-129.89,115.42,56.99,0
24730,-6.34,-9.78,-19.22,-203.91,74.57,71.44,0
24755,-5.55,-7.88,-17.55,-248.73,49.26,89.55,0
24779,-3.44,-8.04,-17.32,-281.9,73.96,96.44,0
24805,-1.55,-7.25,-16.78,-320.68,77.56,80.83,0
24830,-1.27,-6.05,-14.3,-351.17,29.81,71.86,0
24855,-1.1,-4.86,-12.24,-368.55,33.35,68.63,0
24880,-0.22,-4.07,-10.6,-378.48,48.35,60.95,0
24904,1.18,-3.31,-8.91,-381.23,14.75,44.61,0
24930,1.35,-2.51,-5.97,-383.06,-28.54,28.63,0
24955,0.38,-1.13,-3.38,-371.29,-28.6,23.39,0
24979,-0.12,0.65,-2.4,-346.53,7.92,16.74,0
25004,0.77,0.79,-0.99,-328.48,-34.46,6.86,0
25029,0.48,1.41,1.73,-308.18,-112.75,11.44,0
25054,-0.27,2.42,4.62,-288.73,-78.6,16.19,0
25079,-0.12,3.62,6.98,-261.9,13.04,13.45,0
25104,-0.69,4.77,9.38,-200.32,9.02,1.68,0
25129,0.36,5.92,12.13,-133.36,-40.25,-11.37,0
25153,-0.35,6.32,12.1,-70.5,-16.28,-12.65,0
25178,0.74,5.74,11.82,-12.27,23.53,-16.31,0
25203,1.2,5.43,11.76,46.08,-29.27,-28.81,0
25228,0.47,5.51,11.09,95.6,-15.98,-37.95,0
25253,0.72,5.29,9.5,134.93,39.87,-46.61,0
25277,0.44,5.22,8.59,170.29,31.76,-59.11,0
25303,0.72,3.95,8.44,212.91,23.71,-71.61,0
25327,0.68,3,8.03,263.34,21.4,-86,0
25352,0.46,1.83,7.11,320.78,17.01,-100.27,0
25378,-0.17,0.01,6.26,384.13,43.78,-111.37,0
25402,0.76,-3.4,4.39,461.26,72.31,-111.18,0
25427,2.03,-8.44,1.71,533.4,23.29,-125.09,0
25452,2.25,-14.64,-1.06,595.1,-17.14,-163.99,0
25477,1.85,-19.65,-5.26,616.57,46.7,-209.41,0
25501,4.52,-19.65,-12,606.87,107.13,-239.78,0
25527,2.39,-19.65,-19.22,532.3,-34.09,-258.26,0
25552,-12.85,-19.65,-19.22,347.48,-206.28,-262.52,0
25577,-17.64,-18.43,-19.22,100.9,-41.41,-169.05,0
25602,-14.28,-17.6,-19.22,-55.01,259.69,-64.48,0
25627,-10.93,-17.01,-19.22,-161.54,106.28,-6.12,0
25652,-9.75,-13.89,-19.22,-204.46,55.3,44.85,0
25678,-8.27,-10.84,-17.36,-215.19,37.62,84.97,0
25702,-5.88,-9.9,-16.64,-227.63,12.25,108.45,0
25728,-4.25,-9.45,-16.75,-245.38,1.82,119.67,0
25752,-3.7,-7.98,-15.63,-267.94,-20.07,127.05,0
25777,-3.07,-7.59,-15.48,-297.51,59.08,130.03,0
25802,-1,-7.03,-14.92,-331.59,127.62,116.31,0
25827,0.74,-5.5,-12.36,-348.79,67.68,94.67,0
25852,1.08,-4.59,-10.23,-355.86,-2.63,81.92,0
25877,1.44,-4.41,-9.05,-372.51,25.79,71.62,0
25902,2.28,-3.48,-5.97,-382.63,13.65,52.96,0
25926,2.7,-2.9,-2.41,-379.22,-21.59,31.38,0
25952,1.76,-1.58,-0.02,-365.37,-34.33,14.55,0
25977,1.09,-0.65,1.62,-343.06,-11.41,4.12,0
26001,1.1,0.04,3.32,-314.16,-7.2,-8.56,0
26026,0.33,1.54,5.31,-275.56,-75.25,-16.92,0
26051,0.05,2.52,6.69,-231.72,-106.28,-16.12,0
26076,-0.81,3.52,8.24,-190.13,-97.26,-10.45,0
26100,-1.52,4.53,10.2,-148.49,-29.82,-5.7,0
26126,-0.48,4.21,12.06,-97.08,16.89,-1.86,0
26151,-0.85,5.83,13.32,-27.45,-10.8,1.19,0
26175,0,5.38,13.5,37.43,1.09,-1,0
26200,0.69,4.94,13.36,107.24,3.47,-9.05,0
26224,0.53,5.04,12.74,184.99,-49.46,-18.68,0
26250,1.29,4.06,10.74,250.66,-61.16,-35.45,0
26275,1.67,2.83,8.75,304.56,-47.26,-54.66,0
26299,1.63,1.55,7.11,351.57,-64.15,-75.45,0
26325,1.49,-0.38,5.67,406.57,-74.15,-100.57,0
26349,1.75,-3.29,3.41,465.29,-53.78,-132.4,0
26374,1.94,-7.9,0.99,518.76,-19.46,-162.22,0
26399,0.35,-13.73,-3.2,551.38,48.29,-185.57,0
26424,-4.18,-17.49,-10.02,577.18,166.09,-163.44,0
26450,-2.46,-19.65,-18.09,550.53,200.54,-91.73,0
26474,-5.95,-18.39,-19.22,442.85,-149.21,-62.89,0
26500,-6.48,-16.81,-19.22,294.86,-70.31,-70.27,0
26524,-6.8,-15.08,-19.22,162.3,31.4,-61.43,0
26549,-9.15,-13.03,-19.22,55.17,2.25,-42.53,0
26575,-9.29,-9.91,-19.22,-20.5,54.26,-6,0
26599,-7.87,-8.78,-19.22,-75.01,32.19,30.22,0
26624,-6.01,-8.73,-19.22,-129.34,-18.42,50.46,0
26649,-5.3,-8.3,-19.22,-180.38,17.68,59.67,0
26674,-4.58,-7.56,-19.21,-225.32,24.69,67.53,0
26698,-3.79,-7.71,-18.47,-265.31,-13.48,75.7,0
26724,-3.8,-7.99,-17.8,-311.23,-13.05,87.84,0
26749,-3.24,-7.74,-15.95,-358.06,6.28,100.22,0
26773,-1.86,-7.29,-12.57,-395.44,4.08,104.85,0
26799,0.15,-6.57,-8.87,-413.67,-0.86,97.66,0
26823,0.77,-5.11,-6.06,-412.75,-9.7,81.25,0
26848,0.96,-3.46,-3.42,-396.59,-5.92,61.99,0
26873,0.53,-1.52,-1.07,-370.13,-21.22,49.55,0
26898,0.4,-0.39,0.51,-344.95,-17.44,40.46,0
26923,0.13,0.53,1.06,-319.7,-10.25,31.92,0
26947,-0.17,2.07,2.14,-291.72,-9.15,24.12,0
26972,-0.02,1.96,3.16,-263.67,-45.74,15.28,0
26997,-0.58,1.85,5.23,-247.45,-62.69,12.78,0
27022,-1.52,2.65,7.6,-228.3,-3.42,16.01,0
27047,-1.64,3.5,9.06,-197.08,100.48,19,0
27072,-1.15,3.91,10.27,-154.16,74.63,14.12,0
27097,-2.09,4.14,13.08,-102.33,-22.44,13.94,0
27121,-1.29,4.15,14.2,-41.84,17.74,14.42,0
27147,-0.46,4.53,15.11,23.22,55.91,5.28,0
27172,-0.11,5.64,15.98,104.38,-5.68,-7.47,0
27196,-0.13,4.91,14.57,186.69,-40.25,-16.73,0
27221,0.46,3.28,11.31,242.06,-5.49,-25.64,0
27246,1.61,2.46,8.74,278.46,19.08,-35.09,0
27271,2.05,1.7,7.42,313.64,2.8,-51.92,0
27295,0.39,1.02,7.81,366.14,-26.16,-69.54,0
27321,-0.2,-0.96,6.72,435.23,50.79,-74.96,0
27346,1.67,-5.22,3.92,513.76,110.3,-64.29,0
27370,3.97,-10.9,0.87,581.26,58.47,-73.01,0
27395,4.88,-17.29,-2.35,652.36,-57.38,-119.72,0
27420,3.02,-19.65,-6.21,690.16,-190,-201.37,0
27445,-1.45,-19.65,-11.62,635.53,-277.32,-289.17,0
27471,-9.45,-19.65,-17.14,504.13,-203.48,-323.99,0
27495,-14.32,-19.65,-19.22,327.42,-1.83,-268.99,0
27521,-16.58,-19.65,-19.22,158.16,56.34,-171.37,0
27545,-17.01,-19.65,-19.22,-2.7,87.13,-79.6,0
27571,-16.18,-16.8,-19.22,-111.35,109.2,6.44,0
27595,-13.14,-13.05,-18.59,-171.11,89.2,74.67,0
27621,-8.98,-11.63,-15.75,-196.23,55.54,112.9,0
27646,-5.61,-11.69,-15.12,-214.83,44.81,119.06,0
27670,-4.35,-9.83,-14.54,-234.77,29.81,112.72,0
27696,-4.12,-8.29,-13.83,-255.13,-5.55,113.94,0
27720,-4.06,-7.62,-13.17,-274.46,0.91,120.52,0
27746,-3.34,-7.27,-12.91,-306.23,42.07,122.29,0
27771,-2.76,-6.72,-11.69,-344.83,75.18,118.51,0
27795,-1.31,-6.11,-9.97,-370.86,62.8,110.03,0
27821,-0.39,-5.36,-7.76,-387.26,38.23,97.11,0
27845,-0.02,-4.01,-5.2,-388.24,37.31,82.41,0
27870,0.62,-2.01,-3.59,-377.39,73.84,60.22,0
27896,1.71,-0.32,-2.89,-359.89,70.91,30.16,0
27920,1.64,0.07,-1.76,-348.48,29.02,-0.76,0
27945,1.49,0.18,-1.05,-347.57,22.98,-21.43,0
27969,2.81,-0.35,-0.57,-345.07,16.09,-45.21,0
27995,2.52,-1.36,1.59,-355.5,-33.11,-75.15,0
28019,-0.6,-0.19,5.76,-366.11,27.68,-91.92,0
28044,-2.48,1.93,8.67,-327.33,205.05,-112.34,0
28070,-6.64,2.87,12.85,-252.57,122.8,-130.82,0
28094,-8.41,5.21,14.9,-178.79,41.4,-102.59,0
28120,-10.62,5.23,16.36,-87.82,26.03,-45.27,0
28144,-10.82,5.45,17.64,22.98,-17.99,16.86,0
28169,-7.94,4.64,15.79,123.22,-46.89,66.19,0
28195,-3.79,3.91,12.8,200.11,-41.41,77.66,0
28219,-2.03,3.28,10.75,262.24,-82.08,59.79,0
28244,-2.16,2.54,9.25,312.97,-110,32.11,0
28269,-2.71,2.32,7.89,363.7,-118.05,16.74,0
28294,-1.53,1.67,6.05,410.41,-120.67,3.45,0
28318,-0.02,-0.47,3.76,446.02,-112.14,-29.42,0
28344,0.28,-1.66,1.56,460.41,-86.53,-62.95,0
28369,0.79,-3.97,-0.36,474.43,-41.83,-95.15,0
28393,1.7,-6.28,-3.08,496.63,45.3,-118.93,0
28418,2.65,-10.68,-5.83,504.07,102.01,-143.74,0
28443,2.31,-13.8,-8.31,508.34,83.9,-161.18,0
28468,-0.78,-15.88,-12.59,505.78,31.64,-179.48,0
28494,-5.14,-15.45,-17.82,445.04,-61.59,-177.52,0
28518,-9.05,-14.58,-19.22,342.36,-197.62,-163.32,0
28544,-11.89,-13.23,-19.22,220.84,-107.08,-124.29,0
28568,-12.29,-15.31,-19.22,110.11,87.31,-62.04,0
28594,-10.11,-15.2,-19.22,30.17,150.6,-21.12,0
28618,-11.16,-13.11,-19.22,-59.1,25.42,17.41,0
28644,-10.81,-9.96,-19.22,-135.68,-4.09,68.33,0
28669,-8.47,-9.73,-18.37,-190.25,79.99,101.86,0
28693,-5.49,-10.07,-18.16,-248.61,98.71,108.02,0
28719,-4,-9.25,-16.91,-298.12,51.03,105.09,0
28743,-3.29,-8.37,-15.36,-342.33,56.09,105.46,0
28769,-2.03,-7.99,-13.02,-378.3,60.36,100.34,0
28794,-0.75,-7.36,-10.69,-398.48,57.74,89.61,0
28818,-0.09,-5.83,-8.29,-396.78,36.76,75.1,0
28844,-0.99,-4.03,-6.66,-388.06,1.09,63.94,0
28868,0.53,-3.2,-5.24,-380.98,9.2,53.45,0
28893,-0.28,-1.66,-2.34,-365.37,-22.08,44,0
28917,-1.23,0.68,0.1,-337.33,-16.96,43.08,0
28943,-0.85,1.68,1.83,-298.49,-20.19,41.19,0
28968,-1.16,3.44,2.58,-256.66,-38.3,42.72,0
28992,0.06,3.79,3.52,-221.6,-53.3,38.21,0
29018,0.01,4.49,4.66,-192.51,-46.71,29.36,0
29042,-0.05,5.5,5.27,-168,26.28,19.73,0
29067,-0.05,5.82,5.79,-138.85,65.06,11.92,0
29092,-1.1,6.7,6.87,-109.16,6.7,9.55,0
29117,0.56,6.52,6.8,-84.34,53.35,4.24,0
29142,1.54,6.73,7.5,-57.82,78.71,-12.77,0
29166,0.56,7.74,9.7,-14.89,15.12,-32.28,0
29191,-0.25,7.39,11.27,41.94,-0.31,-39.66,0
29215,-1.59,7.21,12,105.47,2.74,-39.23,0
29241,-1.81,6.45,11.73,176.14,4.2,-31.73,0
29266,-1.01,4.84,10.48,242.06,5.36,-31.25,0
29290,-0.72,3.26,9.49,310.59,-10.19,-36.18,0
29316,-0.18,1.49,8.04,384.01,-48.3,-47.1,0
29340,-0.88,-1.87,6.55,462.91,-67.81,-59.6,0
29365,-0.06,-6.16,3.78,532.6,-13.11,-71.79,0
29390,1.48,-12.09,0.76,595.04,15.97,-86.06,0
29415,2.5,-19.33,-2.45,648.46,-19.03,-115.09,0
29440,0.16,-19.65,-8.77,671.14,-48.6,-163.13,0
29465,0.47,-19.65,-14.04,637.54,-76.71,-196.24,0
29490,-6.96,-19.65,-19.22,523.09,-274.27,-225.21,0
29515,-17.56,-19.65,-19.22,310.9,-223.48,-198.74,0
29540,-17.96,-19.65,-19.22,106.69,121.76,-95.51,0
29566,-14.69,-18.47,-19.22,-48.67,222.68,-9.97,0
29590,-11.98,-14.41,-19.22,-155.8,79.02,45.64,0
29615,-7.92,-11.24,-17.32,-199.64,78.35,84.85,0
29640,-5.71,-10.66,-15.17,-226.17,82.31,95.16,0
29665,-4.17,-9.89,-13.82,-248.3,48.84,91.13,0
29691,-2.99,-8.03,-13.11,-257.57,70.36,80.34,0
29715,-2.24,-6.91,-13.53,-268,50.12,69.36,0
29740,-2.01,-6.15,-13.38,-288.55,24.87,62.17,0
29765,-1.45,-5.92,-12.78,-317.08,52.86,55.52,0
29790,-1.19,-5.18,-10.8,-340.44,42.86,50.03,0
29815,-1.69,-3.94,-9.31,-346.05,58.17,42.72,0
29840,-0.42,-3.06,-7.89,-344.7,69.93,30.16,0
29865,-0.37,-1.38,-6.12,-335.62,30.61,18.57,0
29889,-1.41,-0.07,-4.31,-324.16,5.12,17.78,0
29915,-1.17,1.29,-3.43,-308.67,33.47,18.27,0
29939,-0.16,1.94,-2.98,-295.31,39.81,10.77,0
29964,-0.1,2.34,-1.09,-281.96,-4.09,0.71,0
29989,-0.8,2.62,-0.04,-269.1,-21.89,-1.92,0
30014,-1.26,2.53,0.16,-274.64,53.23,-3.68,0
30039,-1.22,3.39,1.77,-268.55,74.99,-5.88,0
30063,-1.6,3.87,4.45,-249.4,13.47,-8.87,0
30088,-2.62,4.62,7.77,-220.56,0.67,-4.9,0
30114,-2.1,6.15,10.7,-158.55,59.2,-0.76,0
30138,-1.61,6.52,13.48,-77.88,7.01,-4.23,0
30163,-2.68,6.93,15.57,17,-73.42,-4.72,0
30187,-2.59,7.48,16.1,120.23,-84.09,8.33,0
30213,-0.74,5.77,12.89,204.5,-64.03,16.01,0
30237,0.98,4.92,9.87,261.81,-76.35,6.32,0
30262,0.91,4.14,8.01,308.64,-105.49,-13.2,0
30287,-0.45,2.99,7,363.4,-141.65,-28.5,0
30312,0.14,0.26,5.22,414.74,-140,-47.1,0
30337,0.63,-2.43,3.21,454.13,-95.25,-73.87,0
30361,1.73,-5.13,1.32,499.74,-55.06,-100.76,0
30387,1.94,-9.96,-0.72,542.12,-80.86,-133.56,0
30411,0.63,-14.55,-3,567.85,-117.08,-178.5,0
30437,-0.87,-19.17,-6.46,569.31,-36.22,-211.3,0
30462,-1.51,-19.65,-12.49,548.03,-18.05,-227.77,0
30486,-5.08,-19.65,-18.86,465.17,-109.82,-229.96,0
30512,-12.86,-19.65,-19.22,308.28,-158.78,-204.6,0
30536,-16.47,-19.65,-19.22,122.73,-40.49,-132.52,0
30562,-15.46,-18.24,-19.22,-21.84,183.23,-46.98,0
30587,-12.95,-14.64,-19.22,-129.89,90.79,25.03,0
30612,-9.86,-11.47,-19.1,-198.97,49.51,80.28,0
30637,-6.48,-10.88,-16.14,-237.45,68.35,103.81,0
30662,-4.2,-10.57,-15.25,-267.14,69.69,104.73,0
30687,-2.95,-9.28,-13.91,-288.12,54.45,98.88,0
30712,-2.32,-7.58,-12.83,-298.97,37.68,93.33,0
30737,-1.47,-6.32,-12.13,-309.34,26.09,85.4,0
30762,-1.18,-5.88,-12.11,-328.06,47.07,75.03,0
30787,-0.53,-5.04,-10.56,-350.07,60.73,61.92,0
30812,0.44,-3.84,-8.47,-354.95,36.09,45.52,0
30836,0.02,-2.62,-6.26,-346.11,-11.96,32.35,0
30861,-0.51,-0.8,-4.86,-334.95,22.98,27.05,0
30887,-0.23,0.58,-3.39,-317.57,5.79,22.17,0
30911,-0.37,1.71,-2.19,-302.27,13.65,18.63,0
30936,-0.77,2.62,-1.35,-290.19,-1.28,18.57,0
30961,-0.45,2.81,0.25,-280.38,10.91,15.95,0
30986,-0.74,3.97,2.1,-257.08,6.28,15.34,0
31011,-0.76,4.53,3.73,-226.35,0.42,13.08,0
31035,-0.74,5.08,5.71,-187.02,-33.05,11.86,0
31061,-0.97,6.27,7.06,-143.3,-29.03,15.22,0
31085,0.33,6.15,8.09,-100.5,-0.98,11.44,0
31110,0.24,7.11,9.23,-47.15,-15.98,0.22,0
31134,0.16,6.64,9.22,1.94,-39.64,-6.86,0
31159,0.28,6.9,9.48,43.89,-17.08,-11.43,0
31185,0.09,7.7,9.41,92.49,3.17,-12.77,0
31209,0.69,7.04,8.44,142.73,-2.26,-16.49,0
31234,1.13,6.61,7.49,189.31,-8.78,-28.62,0
31258,1.79,5.44,7.03,239.01,-15.92,-46.37,0
31284,1.25,4.04,6.73,293.22,-49.03,-68.14,0
31309,-0.16,2.57,5.88,356.39,-72.08,-86.37,0
31333,-0.89,-0.11,4.84,421.93,-78.11,-99.6,0
31359,-0.55,-4.18,3.03,483.09,-56.47,-112.16,0
31383,0.03,-9.59,0.86,536.26,-41.04,-132.04,0
31408,0.15,-15.57,-2.08,582.3,20.18,-152.46,0
31433,-0.81,-19.65,-6.58,611.75,75.42,-159.78,0
31458,-2.42,-19.65,-15.24,595.59,89.32,-155.57,0
31483,-2.94,-19.65,-19.22,484.86,-61.04,-140.88,0
31508,-14.51,-18.32,-19.22,243.83,-252.38,-105.76,0
31533,-16.11,-16.54,-19.22,-3.31,50.48,-28.32,0
31558,-10.11,-14.43,-19.22,-137.15,451.76,29.18,0
31583,-4.53,-11.98,-19.22,-229.4,215.79,34.79,0
31609,-4.14,-8.74,-17.41,-250.68,21.58,50.89,0
31633,-3.79,-6.9,-14.07,-255.13,60.36,67.78,0
31658,-1.75,-5.65,-13.17,-252.02,94.02,68.27,0
31683,-0.25,-5.06,-12.87,-248.85,-0.68,61.68,0
31708,0.06,-4.16,-12.36,-248.36,-29.09,57.53,0
31732,-0.18,-3.27,-11.56,-250.01,-26.41,53.02,0
31758,0.04,-2.68,-11.32,-260.74,-5.19,47.78,0
31783,0.97,-2.24,-10.61,-267.94,-17.08,39.12,0
31807,1.23,-1.19,-9.18,-269.52,-62.93,31.01,0
31833,0.53,-0.58,-8.39,-268,-103.72,28.57,0
31857,-0.58,0.88,-7.33,-278.91,-35.43,29.73,0
31882,0.34,1.33,-5.91,-285.31,45,24.18,0
31908,1.81,2.26,-3.96,-269.1,-7.75,12.6,0
31932,-1.19,4.15,-1.83,-257.33,-82.44,16.32,0
31957,-0.22,4.03,0.6,-238.85,5.91,13.51,0
31981,0.36,4.78,1.7,-215.32,81.21,2.11,0
32007,0.4,4.59,3.27,-186.29,37.8,-13.14,0
32031,-0.58,5.22,4.28,-151.23,10.61,-17.65,0
32056,-0.27,6.3,5.3,-115.13,52.86,-25.09,0
32082,-0.7,6.32,6.02,-78.79,64.75,-31.49,0
32106,-1.36,6.44,7.28,-38.61,20.12,-30.21,0
32131,-2.15,7.2,8.28,10.05,37.25,-24.42,0
32155,-1.89,7.46,8.29,75.29,17.31,-13.62,0
32181,-1.87,7.38,8.41,142,4.26,-2.47,0
32206,-0.95,6.9,7.68,221.45,-3.85,-0.57,0
32230,-0.72,4.65,5.99,288.09,-36.41,-7.47,0
32255,-0.9,2.76,4.28,335.23,8.78,-15.27,0
32279,0.55,0.98,2.39,389.98,105.24,-8.99,0
32305,0.81,-3.01,0.43,441.39,80.6,-3.99,0
32329,2.33,-7.47,-1.31,486.57,78.41,-6.61,0
32354,2.08,-10.11,-3.34,533.64,48.41,-10.76,0
32380,3.16,-14,-7.74,574.31,-83.54,-40.09,0
32404,1.71,-17.02,-11.9,561.2,-346.77,-118.13,0
32429,-6.59,-16.51,-15.09,441.57,-406.83,-186,0
32454,-9.73,-15.07,-16.96,282.12,-115.98,-182.77,0
32479,-9.85,-16.24,-19.22,165.96,144.63,-143.44,0
32505,-9.22,-17.43,-19.22,52.61,94.99,-106.18,0
32529,-9.99,-15.76,-19.22,-41.66,70.24,-65.21,0
32555,-10.76,-12.66,-19.22,-107.57,54.57,-12.65,0
32579,-9.54,-10.55,-19.09,-160.44,16.21,39,0
32604,-5.76,-11.22,-18.32,-205.01,24.81,65.64,0
32629,-3.52,-10.93,-17.37,-251.9,45.85,69.36,0
32654,-2.62,-10.01,-15.94,-286.59,51.28,66.68,0
32680,-1.81,-8.66,-14.46,-311.41,29.14,67.47,0
32704,-0.95,-7.84,-12.7,-333.67,-5,67.29,0
32729,0.17,-6.85,-10.71,-358.24,9.57,58.57,0
32754,1.14,-6.59,-8.89,-384.22,55.3,34.97,0
32779,1.68,-5.34,-6.23,-395.68,63.04,4.24,0
32804,1.42,-3.9,-3.97,-386.29,33.11,-25.45,0
32828,1.17,-2.62,-2.4,-367.45,19.81,-48.68,0
32854,-0.35,-0.85,-0.75,-342.08,-12.99,-55.7,0
32878,-1.67,1.35,0.71,-313.55,6.03,-51.49,0
32903,-2.03,2.94,1.72,-279.52,35.91,-44.17,0
32928,-2.23,3.91,2.27,-246.05,53.59,-39.17,0
