t_ms,ax,ay,az,gx,gy,gz,label
5,4.05,0.19,-8.55,-0.07,0,-0.03,4
28,4.01,0.18,-8.57,-0.01,0.06,0.1,4
53,4.1,0.22,-8.72,0.05,-0.07,-0.03,4
78,4.02,0.17,-8.71,0.11,0,0.1,4
102,4.05,0.19,-8.58,0.11,0.06,-0.03,4
127,4.04,0.23,-8.59,-0.01,-0.07,0.1,4
151,4.03,0.15,-8.52,0.11,0.06,-0.15,4
176,4,0.21,-8.59,0.11,0,0.03,4
200,4.06,0.23,-8.51,0.05,-0.07,0.1,4
225,4.04,0.2,-8.61,-0.07,0.18,-0.03,4
250,4,0.22,-8.61,-0.01,0.18,0.1,4
274,4,0.13,-8.51,0.11,0.12,0.1,4
299,4.08,0.23,-8.65,-0.07,0.06,0.1,4
323,4,0.19,-8.63,-0.01,0.06,0.1,4
348,3.96,0.26,-8.64,0.23,0.12,0.03,4
372,4.04,0.21,-8.66,-0.01,0,-0.03,4
397,4.03,0.17,-8.51,0.17,0,-0.09,4
422,4.03,0.18,-8.7,-0.01,0.12,0.03,4
446,4.06,0.22,-8.61,-0.13,0.18,-0.09,4
471,4.03,0.15,-8.67,-0.01,0.12,0.03,4
495,3.94,0.18,-8.62,0.11,-0.19,0.1,4
520,4.07,0.18,-8.69,0.05,0,0.1,4
544,4.06,0.19,-8.57,-0.07,0.06,0.03,4
569,4.01,0.18,-8.61,-0.13,-0.13,0.1,4
594,4.04,0.19,-8.6,-0.07,-0.07,-0.09,4
618,4.11,0.23,-8.54,-0.01,0.12,-0.09,4
642,4.06,0.12,-8.57,0.05,-0.13,-0.03,4
666,4.02,0.2,-8.55,-0.07,0.12,0.03,4
691,4.05,0.24,-8.64,0.23,0,-0.09,4
715,4.13,0.19,-8.5,-0.01,-0.07,0.03,4
740,3.98,0.21,-8.61,-0.01,0.12,0.03,4
765,4.05,0.21,-8.57,-0.01,0.12,-0.03,4
789,4.06,0.23,-8.67,-0.01,0.12,-0.21,4
814,4.03,0.16,-8.71,-0.01,0,0.16,4
838,4.06,0.2,-8.59,0.05,0,0.03,4
863,4.03,0.24,-8.59,0.11,-0.07,-0.03,4
888,4.06,0.14,-8.65,0.11,0.24,-0.09,4
912,3.99,0.19,-8.57,0.05,0.12,-0.09,4
937,4.03,0.17,-8.56,-0.01,0.18,0.03,4
961,4.08,0.19,-8.6,0.05,0,-0.09,4
986,4.02,0.22,-8.62,0.05,0.06,0.03,4
1010,4.02,0.19,-8.56,-0.07,-0.13,0.1,4
1035,4.1,0.22,-8.55,0.05,0,-0.03,4
1060,4,0.22,-8.64,0.05,0.18,0.03,4
1084,4.04,0.22,-8.56,-0.2,-0.07,-0.09,4
1109,4.07,0.27,-8.6,-0.07,0.18,0.1,4
1133,4.05,0.21,-8.63,-0.07,-0.07,0.1,4
1158,4.06,0.16,-8.59,-0.13,0,-0.09,4
1182,4.03,0.2,-8.6,-0.01,-0.07,0.03,4
1207,4.07,0.2,-8.61,0.05,-0.07,-0.03,4
1232,4.05,0.19,-8.66,-0.01,-0.07,-0.03,4
1256,4,0.19,-8.61,0.05,0,0.16,4
1281,4.05,0.22,-8.6,-0.01,0.06,0.03,4
1305,4.05,0.24,-8.58,-0.07,0.12,-0.15,4
1330,4.08,0.19,-8.6,0.17,-0.13,-0.03,4
1354,4.07,0.21,-8.61,0.17,0.06,0.1,4
1379,4.04,0.23,-8.6,-0.07,0.12,0.22,4
1404,4.06,0.25,-8.63,-0.13,0.24,0.1,4
1428,4,0.17,-8.64,-0.07,0.06,-0.03,4
1453,4.02,0.27,-8.6,-0.01,0.06,-0.03,4
1477,4.04,0.17,-8.55,-0.01,0.06,-0.03,4
1502,4.02,0.21,-8.59,-0.01,0.12,-0.15,4
1527,3.99,0.25,-8.6,0.05,0.12,0.22,4
1551,4.07,0.21,-8.72,-0.01,0.06,0.1,4
1576,3.99,0.17,-8.71,-0.07,0.18,-0.09,4
1600,4.06,0.18,-8.61,-0.07,0,0.03,4
1625,4.03,0.19,-8.61,0.11,0.12,-0.09,4
1649,4.03,0.15,-8.52,-0.01,-0.13,-0.15,4
1674,4.05,0.14,-8.64,0.05,0.18,0.16,4
1699,4.1,0.24,-8.55,-0.07,0.12,0.03,4
1723,4.06,0.27,-8.62,0.05,0,-0.03,4
1748,4.03,0.22,-8.56,0.11,0,0.16,4
1772,4,0.19,-8.58,0.05,0.18,0.16,4
1797,4.09,0.2,-8.61,-0.01,-0.07,0.16,4
1821,4.02,0.19,-8.58,-0.07,0.06,0.03,4
1846,3.98,0.2,-8.7,0.05,0.06,0.03,4
1871,4.1,0.26,-8.64,-0.07,0.12,0.03,4
1895,4.01,0.19,-8.57,0.05,0.18,0.1,4
1920,3.99,0.18,-8.61,0.05,0,0.03,4
1944,4.05,0.21,-8.58,-0.01,-0.07,0.03,4
1969,4.09,0.17,-8.64,-0.01,-0.07,-0.03,4
1993,3.99,0.23,-8.58,-0.07,0.06,-0.15,4
2018,4.03,0.21,-8.58,0.17,0.18,-0.15,4
2043,4.11,0.17,-8.54,0.11,0,-0.15,4
2067,4.03,0.11,-8.66,-0.07,0.06,-0.03,4
2092,3.99,0.19,-8.55,0.11,0.06,-0.09,4
2116,4.05,0.24,-8.64,0.05,0.12,-0.03,4
2141,4.05,0.18,-8.66,-0.01,-0.07,0.1,4
2165,4.01,0.18,-8.58,0.05,-0.07,0.1,4
2190,4.03,0.2,-8.59,0.05,0.12,0.1,4
2215,4.06,0.15,-8.73,-0.07,0.24,-0.09,4
2239,4.03,0.16,-8.63,-0.01,0.12,0.03,4
2264,4.02,0.19,-8.62,-0.01,0.12,0.1,4
2288,4.08,0.2,-8.63,0.11,0.18,-0.09,4
2313,4.02,0.19,-8.5,-0.07,0.24,0.03,4
2338,3.99,0.18,-8.5,0.05,0,-0.03,4
2362,4.04,0.17,-8.64,-0.07,0.06,-0.03,4
2387,4.05,0.22,-8.63,-0.07,0.12,-0.09,4
2411,4.03,0.18,-8.59,0.23,0.06,-0.03,4
2436,4.04,0.17,-8.57,-0.01,0.18,0.03,4
2460,4.08,0.17,-8.71,0.05,0.06,0.03,4
2485,3.99,0.15,-8.65,-0.01,0.12,-0.03,4
2510,4.01,0.2,-8.61,0.05,0.12,-0.03,4
2534,4.07,0.23,-8.6,-0.01,0.18,0.03,4
2559,4.06,0.2,-8.53,-0.07,0,0.03,4
2583,4.02,0.17,-8.59,0.17,0.18,0.03,4
2608,4.03,0.22,-8.6,-0.01,0.12,-0.03,4
2632,4.08,0.16,-8.65,0.17,0,0.1,4
2657,4.05,0.19,-8.64,0.05,0,0.03,4
2682,3.99,0.15,-8.7,0.11,0.06,0.03,4
2706,4.11,0.19,-8.61,0.11,0.12,0.03,4
2731,4.08,0.22,-8.72,0.17,-0.13,0.03,4
2755,4.01,0.16,-8.62,-0.01,-0.07,0.1,4
2780,4.11,0.21,-8.65,-0.01,-0.07,0.03,4
2804,4.13,0.25,-8.64,-0.01,-0.07,0.03,4
2829,4.01,0.19,-8.68,0.05,0,0.1,4
2854,4.03,0.2,-8.58,0.11,-0.13,0.03,4
2878,4.1,0.19,-8.62,-0.2,0,-0.03,4
2903,4.02,0.15,-8.52,-0.01,0.06,0.16,4
2927,3.97,0.23,-8.65,-0.07,0.06,-0.09,4
2952,4.03,0.2,-8.68,0.05,0.06,0.1,4
2976,4.1,0.26,-8.59,0.11,-0.07,0.1,4
3001,4.04,0.21,-8.63,0.05,0,-0.09,4
3026,3.99,0.2,-8.63,0.17,0,0.1,4
3050,4.08,0.26,-8.56,0.05,0.06,0.1,4
3075,4.11,0.13,-8.68,0.11,-0.07,0.03,4
3099,4.05,0.21,-8.66,-0.07,0.12,0.1,4
3124,3.99,0.26,-8.58,0.11,0.12,-0.03,4
3150,4.01,0.18,-8.6,-0.01,0,0.03,4
3174,4.03,0.21,-8.57,-0.01,-0.61,0.16,4
3199,4.05,0.16,-8.68,0.11,-0.13,-0.03,4
3223,4.07,0.2,-8.55,0.05,0.06,0.1,4
3248,4,0.24,-8.58,-0.01,0.06,-0.09,4
3272,4.05,0.21,-8.66,0.05,0,0.1,4
3297,4.07,0.2,-8.55,0.11,0.18,0.1,4
3322,4.07,0.23,-8.62,0.05,0,0.03,4
3346,3.98,0.2,-8.59,-0.01,0.06,-0.09,4
3371,4.09,0.21,-8.59,-0.07,0.12,-0.15,4
3395,4.07,0.18,-8.63,0.11,0,0.1,4
3420,4.03,0.19,-8.66,0.05,0.12,0.03,4
3444,4.07,0.17,-8.59,-0.01,0.06,0.03,4
3469,4.07,0.17,-8.59,0.11,0.12,0.03,4
3494,4.07,0.26,-8.61,0.17,-0.07,-0.09,4
3518,4.06,0.15,-8.63,-0.07,0.12,-0.03,4
3543,4.11,0.21,-8.71,0.05,0.06,-0.03,4
3567,4.09,0.19,-8.58,0.11,0.06,-0.09,4
3592,4.05,0.18,-8.57,-0.01,-0.07,0.16,4
3616,3.99,0.2,-8.59,0.11,0,-0.03,4
3641,4.07,0.28,-8.61,0.05,0.12,0.03,4
3666,4.09,0.19,-8.62,-0.13,0.12,-0.09,4
3690,3.99,0.18,-8.61,0.11,0.12,-0.09,4
3715,4.07,0.16,-8.63,0.05,0,0.1,4
3739,4.04,0.21,-8.57,0.11,-0.07,-0.09,4
3764,3.95,0.21,-8.7,0.11,0.18,-0.15,4
3789,4.03,0.18,-8.65,-0.01,0.18,-0.15,4
3813,4.09,0.22,-8.58,-0.07,0,0.16,4
3838,4.01,0.24,-8.61,-0.01,0,-0.03,4
3862,4.03,0.17,-8.62,-0.01,0.06,0.1,4
3887,4.07,0.17,-8.63,-0.01,-0.13,0.1,4
3911,4.02,0.18,-8.66,0.11,0,-0.09,4
3936,4.03,0.16,-8.59,0.05,0.12,0.03,4
3961,4.1,0.22,-8.61,-0.07,0,-0.03,4
3985,4.03,0.2,-8.62,-0.07,0.18,-0.03,4
4010,4.06,0.22,-8.7,-0.01,0.12,-0.03,4
4034,4.07,0.17,-8.72,0.17,-0.07,-0.09,4
4059,4.06,0.18,-8.56,0.11,0.06,0.16,4
4083,4.04,0.25,-8.57,0.17,0,0.1,4
4108,4,0.16,-8.65,-0.07,-0.13,0.03,4
4133,4.07,0.21,-8.59,0.11,0,0.16,4
4157,4.04,0.12,-8.59,-0.07,0.06,0.1,4
4182,3.99,0.14,-8.54,0.11,0.06,-0.09,4
4206,4.04,0.22,-8.58,0.11,-0.07,-0.03,4
4231,4.05,0.24,-8.6,0.11,0,0.03,4
4255,4.04,0.19,-8.59,0.05,0.12,0.1,4
4280,3.98,0.2,-8.67,-0.01,0,0.34,4
4305,4.09,0.24,-8.68,0.05,-0.07,0.03,4
4329,4.13,0.24,-8.64,-0.01,-0.07,0.1,4
4354,4.02,0.18,-8.64,0.11,0.24,0.03,4
4378,4.07,0.26,-8.61,-0.01,0.06,0.1,4
4403,4.07,0.26,-8.7,0.05,0.12,0.16,4
4427,4.08,0.2,-8.61,-0.07,0.12,0.1,4
4452,4.05,0.16,-8.62,-0.01,-0.19,0.1,4
4477,4.07,0.23,-8.56,0.17,0.3,0.03,4
4501,4.08,0.16,-8.6,-0.01,-0.07,-0.03,4
4526,4.04,0.15,-8.54,0.05,0.06,0.1,4
4550,4.05,0.2,-8.61,0.05,-0.07,0.03,4
4575,4.08,0.22,-8.64,0.11,0,-0.03,4
4600,4.05,0.17,-8.59,0.05,-0.07,0.16,4
4624,4.08,0.18,-8.6,-0.07,0,0.1,4
4649,4.06,0.21,-8.62,-0.07,0,0.16,4
4673,4.07,0.28,-8.66,-0.01,-0.13,-0.09,4
4698,4.01,0.24,-8.56,-0.01,0,0.22,4
4722,4.03,0.23,-8.58,-0.07,-0.07,-0.21,4
4747,4.05,0.21,-8.63,-0.07,0,-0.09,4
4772,3.99,0.18,-8.65,0.17,0.12,0.03,4
4796,4.06,0.23,-8.59,0.23,-0.13,0.1,4
4821,4.12,0.2,-8.63,-0.07,0.18,-0.03,4
4845,4.03,0.2,-8.62,0.05,0,0.16,4
4870,4.01,0.16,-8.62,0.05,0.18,0.1,4
4894,4.13,0.22,-8.64,-0.01,0,0.03,4
4919,4.07,0.21,-8.59,0.05,0.06,-0.03,4
4944,4.02,0.19,-8.58,-0.01,0.12,-0.09,4
4968,4.1,0.22,-8.58,0.29,0.06,0.03,4
4993,4.08,0.2,-8.51,-0.01,0,-0.03,4
5017,4.02,0.22,-8.57,-0.07,0.12,-0.03,4
5042,3.99,0.2,-8.6,0.11,0.18,0.03,4
5066,4.08,0.17,-8.55,-0.01,0.12,0.03,4
5091,4.06,0.24,-8.71,-0.07,0.06,-0.03,4
5116,3.96,0.11,-8.64,-0.07,-0.13,0.1,4
5140,4.11,0.2,-8.63,-0.2,0,-0.09,4
5165,4.1,0.19,-8.52,-0.07,-0.07,-0.03,4
5189,4.04,0.13,-8.51,0.05,-0.07,-0.09,4
5214,4.05,0.18,-8.54,-0.13,-0.07,-0.03,4
5239,4.07,0.23,-8.62,0.17,0,-0.09,4
5263,4.09,0.17,-8.62,-0.01,-0.07,-0.03,4
5288,4.1,0.23,-8.63,-0.01,0,-0.03,4
5312,4.11,0.17,-8.56,-0.01,0.06,-0.15,4
5337,4.04,0.21,-8.64,-0.07,-0.07,-0.03,4
5361,4.09,0.21,-8.52,-0.07,0,0.03,4
5386,4.05,0.19,-8.55,0.23,0,-0.03,4
5411,4.07,0.19,-8.64,0.11,0.12,0.03,4
5435,4.05,0.19,-8.61,-0.07,0.06,-0.15,4
5460,4,0.16,-8.64,-0.01,0.12,-0.03,4
5484,4.08,0.27,-8.66,0.11,0.12,0.1,4
5509,4.07,0.21,-8.65,0.17,-0.07,0.1,4
5533,4.01,0.16,-8.64,0.11,0.18,0.03,4
5558,4.07,0.23,-8.54,0.11,0.18,0.03,4
5583,4.09,0.17,-8.6,-0.01,0.06,0.1,4
5607,4.1,0.18,-8.65,-0.2,0.06,0.03,4
5632,4.04,0.16,-8.55,-0.07,0.12,0.03,4
5656,4.06,0.22,-8.6,-0.01,0.06,0.1,4
5681,4.09,0.22,-8.56,0.05,0.06,0.16,4
5705,4.06,0.2,-8.58,0.05,0.06,0.03,4
5730,4.07,0.28,-8.56,-0.01,-0.13,0.03,4
5755,4.1,0.2,-8.62,-0.13,0.06,-0.09,4
5779,4.06,0.24,-8.62,0.17,-0.07,-0.09,4
5804,4.02,0.16,-8.59,-0.01,-0.13,0.16,4
5828,4.05,0.18,-8.57,0.11,0.12,-0.09,4
5853,4.12,0.15,-8.62,0.11,0.18,-0.09,4
5877,4.02,0.21,-8.57,0.05,0,0.03,4
5902,4.07,0.21,-8.66,-0.07,0.06,-0.15,4
5927,4.09,0.19,-8.6,0.11,0.12,0.03,4
5951,3.99,0.23,-8.63,0.11,0.18,-0.09,4
5976,4.05,0.28,-8.65,-0.01,0.06,-0.15,4
6000,4.11,0.2,-8.67,-0.13,-0.13,0.03,4
6025,4.03,0.18,-8.58,-0.07,-0.07,-0.15,4
6050,4.04,0.22,-8.63,-0.01,-0.13,-0.15,4
6074,4.03,0.19,-8.61,-0.01,0,0.1,4
6099,4.05,0.27,-8.53,-0.2,0.12,0.1,4
6123,3.99,0.2,-8.54,-0.07,0.06,-0.03,4
6148,4.06,0.19,-8.59,-0.07,-0.13,-0.03,4
6172,4.05,0.24,-8.55,0.05,-0.07,0.03,4
6197,4.09,0.21,-8.55,0.05,-0.07,0.03,4
6222,4.06,0.15,-8.61,0.11,0.06,-0.21,4
6246,4.13,0.2,-8.61,-0.07,0,0.03,4
6271,4.07,0.22,-8.48,-0.07,0.06,-0.09,4
6295,4.06,0.22,-8.61,0.17,0,0.1,4
6320,4.04,0.14,-8.57,-0.01,-0.07,0.03,4
6344,4.09,0.25,-8.62,-0.07,0,-0.09,4
6369,3.99,0.16,-8.66,0.17,0,-0.03,4
6394,4.02,0.24,-8.61,0.05,0.12,0.16,4
6418,4.09,0.18,-8.49,0.17,-0.19,-0.03,4
6443,4.1,0.15,-8.59,0.05,0,-0.03,4
6467,4.02,0.22,-8.52,-0.2,0.12,0.03,4
6492,4.06,0.18,-8.61,-0.01,0.06,-0.15,4
6516,4.1,0.23,-8.53,-0.13,0.12,-0.03,4
6541,3.97,0.17,-8.63,0.05,0,-0.15,4
6566,4.03,0.2,-8.56,-0.07,-0.07,-0.09,4
6590,4.07,0.2,-8.58,-0.13,-0.13,-0.03,4
6615,4.04,0.13,-8.53,-0.01,0,0.03,4
6639,4.05,0.19,-8.66,-0.01,0.12,-0.09,4
6664,4.03,0.24,-8.63,0.11,0,-0.03,4
6690,4.06,0.2,-8.71,0.05,-0.13,0.1,4
6714,4.06,0.18,-8.56,0.05,-0.13,0.16,4
6739,4.04,0.19,-8.61,0.11,-0.13,0.03,4
6763,4.05,0.23,-8.54,0.11,0.06,0.03,4
6788,4.07,0.13,-8.53,-0.07,0,-0.09,4
6812,4.04,0.21,-8.53,-0.01,0.12,0.03,4
6837,4.07,0.17,-8.61,0.11,0,0.22,4
6862,4.06,0.18,-8.59,-0.01,0.06,-0.09,4
6886,4.03,0.22,-8.61,-0.13,-0.07,-0.15,4
6911,4.08,0.19,-8.58,-0.01,0.12,-0.03,4
6935,4.11,0.19,-8.59,-0.01,-0.07,-0.09,4
6960,3.98,0.2,-8.67,0.11,0.06,0.03,4
6984,4.04,0.22,-8.67,0.05,0,0.03,4
7009,4.07,0.24,-8.63,-0.01,-0.13,-0.09,4
7034,4.09,0.23,-8.61,-0.01,0.12,0.03,4
7058,4,0.18,-8.71,0.05,-0.13,-0.09,4
7083,4.03,0.25,-8.53,-0.13,0,0.16,4
7107,4.09,0.2,-8.55,0.11,0.12,0.1,4
7132,4,0.19,-8.57,0.11,0,0.1,4
7156,4.07,0.21,-8.6,0.11,0.18,-0.03,4
7181,4.09,0.24,-8.61,0.17,-0.07,-0.15,4
7206,4.04,0.19,-8.62,-0.2,0,0.1,4
7230,4.02,0.2,-8.67,-0.01,-0.07,0.1,4
7255,4.05,0.16,-8.61,0.05,0,0.1,4
7279,4.08,0.21,-8.61,0.11,-0.07,-0.09,4
7304,3.99,0.15,-8.64,-0.01,0,0.03,4
7328,4.1,0.19,-8.56,0.05,0,-0.09,4
7353,4.04,0.21,-8.63,0.05,0.06,-0.15,4
7378,4.1,0.15,-8.62,-0.01,0.06,-0.03,4
7402,4.08,0.17,-8.59,-0.07,0,0.16,4
7427,4.09,0.22,-8.57,0.05,0.12,-0.03,4
7451,4.05,0.18,-8.58,0.05,-0.19,-0.03,4
7476,3.97,0.27,-8.6,0.11,0.06,0.03,4
7501,4.03,0.2,-8.57,-0.01,0,0.03,4
7525,4.02,0.22,-8.61,-0.01,0.12,0.03,4
7550,4.01,0.24,-8.57,-0.01,0.06,0.03,4
7574,4.07,0.2,-8.62,0.11,0.24,-0.09,4
7599,4.1,0.21,-8.61,0.05,0.06,0.03,4
7623,4.06,0.12,-8.67,-0.01,0.18,-0.03,4
7648,4.07,0.16,-8.53,-0.01,0.18,-0.09,4
7673,4.06,0.22,-8.64,0.11,0,-0.03,4
7697,4.07,0.19,-8.52,0.11,-0.07,0.03,4
7722,4.02,0.21,-8.59,-0.01,0,-0.09,4
7746,4.06,0.22,-8.52,0.11,0.12,0.03,4
7771,4.11,0.21,-8.64,0.11,0,-0.03,4
7795,4.06,0.19,-8.52,0.11,0,0.1,4
7820,4.02,0.2,-8.63,0.17,0.12,-0.21,4
7845,4.09,0.18,-8.61,0.11,0.06,0.1,4
7869,4.02,0.21,-8.63,0.17,0.12,0.1,4
7894,4.05,0.19,-8.61,-0.01,-0.07,-0.09,4
7918,4.1,0.19,-8.59,-0.01,0.06,-0.03,4
7943,4.08,0.21,-8.6,-0.01,-0.07,-0.03,4
7967,4.1,0.17,-8.71,-0.07,0.18,-0.03,4
7992,4,0.18,-8.6,-0.01,-0.07,-0.21,4
8017,4.05,0.22,-8.61,-0.07,-0.07,-0.09,4
8041,4.07,0.12,-8.56,0.11,0,0.03,4
8066,4.03,0.18,-8.67,-0.07,0.12,-0.03,4
8090,4.06,0.22,-8.58,0.11,-0.07,-0.03,4
8115,4.03,0.23,-8.68,-0.01,0.06,0.03,4
8139,4.01,0.16,-8.53,-0.01,0.06,0.1,4
8164,4.02,0.2,-8.54,0.11,0.18,-0.09,4
8189,4.04,0.15,-8.69,-0.01,0,0.1,4
8213,4.04,0.19,-8.61,0.11,0.12,0.16,4
8238,4.02,0.15,-8.6,-0.13,0.12,-0.03,4
8262,4.06,0.13,-8.51,0.05,0.06,-0.21,4
8287,4.1,0.16,-8.59,-0.01,0.06,0.03,4
8312,4.07,0.21,-8.61,-0.01,0.18,0.03,4
8336,4.07,0.24,-8.56,-0.01,0.12,-0.03,4
8361,4.1,0.21,-8.56,-0.01,-0.13,-0.09,4
8385,4.07,0.16,-8.65,0.17,0.06,-0.09,4
8410,4.08,0.22,-8.55,-0.07,-0.07,-0.15,4
8434,4.02,0.19,-8.57,-0.01,0.18,-0.03,4
8459,4.07,0.15,-8.53,-0.13,0.06,0.16,4
8484,3.99,0.23,-8.49,0.05,0,0.03,4
8508,4.03,0.27,-8.57,0.11,0.18,0.1,4
8533,4.08,0.18,-8.53,0.11,-0.07,-0.15,4
8557,4.03,0.19,-8.58,0.05,0.06,0.1,4
8582,3.99,0.22,-8.58,0.05,0.12,-0.03,4
8606,4.1,0.18,-8.6,0.11,-0.07,0.03,4
8631,4.03,0.19,-8.62,0.17,-0.13,-0.03,4
8656,4.01,0.15,-8.58,0.05,-0.07,0.16,4
8680,4.03,0.19,-8.62,-0.07,0,-0.15,4
8705,4.06,0.19,-8.6,0.11,0.06,-0.03,4
8729,4.04,0.19,-8.58,0.05,0,-0.09,4
8754,4.06,0.22,-8.58,-0.01,0.12,-0.09,4
8778,4.1,0.24,-8.6,0.11,0.12,-0.03,4
8803,4.01,0.19,-8.52,0.11,0.12,-0.03,4
8828,4.05,0.19,-8.59,-0.01,0.24,-0.09,4
8852,4.06,0.27,-8.58,0.05,0.12,0.1,4
8877,4.08,0.21,-8.6,-0.01,0,-0.21,4
8901,4.04,0.18,-8.69,0.05,-0.19,0.1,4
8926,4.1,0.18,-8.58,-0.01,-0.07,0.1,4
8951,4.13,0.27,-8.61,0.05,-0.13,-0.03,4
8975,4.06,0.26,-8.54,0.05,0.18,0.22,4
9000,4,0.18,-8.56,-0.01,0.06,0.03,4
9024,4.04,0.2,-8.64,0.05,0,-0.03,4
9049,4.04,0.16,-8.62,-0.01,0,0.03,4
9073,4.02,0.21,-8.63,0.05,-0.07,0.16,4
9098,4.07,0.21,-8.6,0.17,0.06,0.16,4
9123,4.07,0.2,-8.63,-0.01,0.18,0.03,4
9147,3.98,0.17,-8.58,-0.01,0.06,-0.03,4
9172,4.04,0.18,-8.62,0.23,-0.13,0.03,4
9196,4.15,0.25,-8.59,0.05,-0.07,0.03,4
9221,4.07,0.15,-8.65,0.11,0.12,-0.03,4
9245,4.05,0.18,-8.69,0.11,0,-0.03,4
9270,4.11,0.26,-8.63,-0.07,0,-0.15,4
9295,4.1,0.22,-8.64,0.11,0,-0.03,4
9319,4.08,0.18,-8.54,0.11,0.06,-0.03,4
9344,4.07,0.17,-8.59,-0.01,0.18,-0.03,4
9368,4.09,0.21,-8.69,0.05,0,0.1,4
9393,4.06,0.17,-8.67,0.05,0.12,-0.09,4
9417,4.03,0.19,-8.66,0.05,0.12,-0.09,4
9442,4.06,0.24,-8.6,-0.01,-0.07,0.03,4
9467,4.11,0.25,-8.56,0.05,0.06,-0.03,4
9491,4.02,0.16,-8.59,-0.07,0,0.03,4
9516,4.02,0.18,-8.58,0.11,0.06,-0.09,4
9540,4.12,0.14,-8.64,0.05,0,0.03,4
9565,4.06,0.17,-8.54,0.11,0.12,-0.09,4
9589,4.01,0.16,-8.68,0.11,0.06,-0.09,4
9614,4.08,0.24,-8.61,0.11,0.12,0.1,4
9639,4.08,0.22,-8.61,0.05,0.18,-0.09,4
9663,3.94,0.18,-8.59,0.05,-0.13,0.1,4
9688,4.04,0.18,-8.59,-0.01,-0.07,0.1,4
9712,4,0.15,-8.41,0.05,0.48,0.03,4
9737,4.01,0.2,-8.62,0.05,0.24,0.1,4
9762,4,0.24,-8.53,0.11,0.18,0.03,4
9786,4.12,0.25,-8.6,-0.2,0.06,0.03,4
9811,4.11,0.17,-8.81,0.11,0,-0.03,4
9835,4.04,0.15,-8.52,-0.07,-0.31,-0.15,4
9860,4.02,0.23,-8.47,0.17,-0.13,0.1,4
9884,4.09,0.26,-8.55,0.05,0.24,-0.09,4
9909,4.1,0.22,-8.58,-0.07,0.06,-0.03,4
9934,4.07,0.2,-8.65,0.11,0.24,-0.03,4
9958,4.1,0.28,-8.62,-0.07,0,0.1,4
9984,4.02,0.19,-8.51,-0.07,0.12,-0.09,4
10008,3.96,0.07,-8.59,-0.01,0.42,0.1,4
10033,4.11,0.1,-8.61,-0.01,0,0.03,4
10057,4.01,0.25,-8.64,0.05,0.06,0.03,4
10082,4.06,0.27,-8.64,0.11,0,-0.03,4
10107,4.07,0.25,-8.61,0.05,0.06,0.03,4
10131,4.08,0.22,-8.59,-0.07,0.24,0.03,4
10156,4.1,0.09,-8.57,-0.13,0.3,-0.15,4
10180,4.06,0.22,-8.63,0.05,0,-0.09,4
10205,4.12,0.3,-8.52,-0.07,-0.31,0.03,4
10229,4.08,0.23,-8.63,-0.07,-0.25,0.1,4
10254,4,0.29,-8.58,-0.01,0.12,-0.15,4
10279,4.06,0.17,-8.63,-0.07,0.42,0.1,4
10303,4.17,0.1,-8.65,-0.01,0.3,0.03,4
10328,4.09,0.17,-8.63,0.17,0.06,-0.09,4
10352,4.04,0.23,-8.61,-0.07,-0.55,0.1,4
10377,4.11,0.27,-8.59,-0.01,-0.13,0.1,4
10402,4.06,0.34,-8.58,-0.01,0.06,-0.03,4
10426,3.99,0.25,-8.51,-0.01,0.36,-0.09,4
10452,4.05,0.2,-8.69,-0.13,0.24,-0.03,4
10476,4.15,0.09,-8.59,-0.01,-0.25,0.03,4
10501,4.03,0.15,-8.61,0.05,-0.43,0.16,4
10525,3.97,0.17,-8.61,0.11,-0.37,-0.03,4
10550,4.06,0.27,-8.59,-0.13,0.06,-0.09,4
10575,4.07,0.35,-8.57,0.11,0.42,-0.09,4
10599,4.06,0.27,-8.56,0.11,0.36,0.22,4
10624,4.02,0.14,-8.71,0.11,0.18,-0.09,4
10648,4.11,0.1,-8.63,0.05,0.12,-0.09,4
10673,4.02,0.15,-8.54,-0.07,0,0.03,4
10697,4.05,0.14,-8.61,0.11,-0.19,0.03,4
10722,4.06,0.24,-8.48,-0.07,0,-0.09,4
10747,4.08,0.24,-8.65,-0.01,-0.19,0.1,4
10771,3.98,0.24,-8.65,0.05,0.06,-0.15,4
10796,4.08,0.15,-8.55,0.05,0.18,-0.03,4
10820,4.15,0.17,-8.66,-0.07,-0.19,-0.03,4
10845,4,0.2,-8.53,0.05,-0.07,0.1,4
10871,4.09,0.19,-8.57,0.05,-0.25,-0.03,4
10895,4.13,0.29,-8.63,-0.01,-0.07,-0.03,4
10920,4.12,0.24,-8.65,-0.01,0,0.03,4
10944,4.01,0.25,-8.6,-0.26,0.18,-0.09,4
10969,4.02,0.17,-8.63,0.17,0.36,0.03,4
10993,4.15,0.14,-8.64,-0.2,-0.07,-0.09,4
11018,4.06,0.1,-8.55,0.11,0,-0.03,4
11043,4.03,0.24,-8.63,0.05,-0.19,-0.03,4
11067,4.1,0.22,-8.6,0.23,0.12,0.16,4
11092,4.07,0.26,-8.55,-0.01,0.42,0.03,4
11116,4.08,0.21,-8.6,-0.07,-0.13,0.03,4
11141,4.09,0.22,-8.73,0.05,0.12,0.03,4
11165,4.08,0.18,-8.57,0.05,-0.25,0.16,4
11190,4.06,0.11,-8.58,-0.07,-0.13,0.22,4
11215,4.06,0.21,-8.55,-0.01,0.06,-0.15,4
11239,3.99,0.27,-8.6,-0.01,-0.31,-0.09,4
11264,4.06,0.24,-8.67,0.05,0.12,0.03,4
11288,4.02,0.24,-8.52,-0.01,-0.07,0.1,4
11314,4.06,0.19,-8.63,0.05,0,0.03,4
11338,4.1,0.13,-8.66,0.11,0.24,0.03,4
11363,4.05,0.15,-8.66,-0.07,0,-0.03,4
11388,4.07,0.24,-8.62,-0.07,0,-0.03,4
11412,4.08,0.19,-8.61,0.05,0.06,-0.03,4
11437,4.07,0.26,-8.64,-0.07,0.06,-0.03,4
11461,4.02,0.2,-8.67,0.05,0.06,0.03,4
11486,4.04,0.15,-8.58,0.05,0.06,0.03,4
11511,4.08,0.22,-8.56,0.17,0,-0.09,4
11535,4.03,0.18,-8.61,-0.07,-0.19,0.03,4
11560,4.04,0.19,-8.55,-0.01,-0.31,0.03,4
11584,4.12,0.17,-8.5,-0.01,-0.07,-0.03,4
11609,4.13,0.25,-8.49,-0.07,0.18,0.03,4
11633,4.06,0.23,-8.6,-0.07,0,0.16,4
11658,4.08,0.2,-8.56,0.05,-0.07,0.1,4
11683,4.08,0.18,-8.66,0.23,0,-0.03,4
11707,4.07,0.2,-8.61,-0.01,0,-0.03,4
11732,4.04,0.19,-8.58,-0.13,0.06,-0.03,4
11756,4.07,0.18,-8.67,0.05,0.12,0.1,4
11781,4.09,0.2,-8.67,0.05,0.12,-0.21,4
11805,4.08,0.2,-8.59,-0.01,-0.07,-0.09,4
11831,4.09,0.22,-8.69,-0.01,-0.07,-0.03,4
11856,4.1,0.24,-8.61,-0.01,0.06,0.03,4
11880,4.05,0.14,-8.57,-0.01,0,0.03,4
11905,4.05,0.2,-8.55,-0.01,-0.07,0.16,4
11929,4.12,0.25,-8.61,-0.01,-0.07,-0.03,4
11954,4.06,0.19,-8.53,0.05,0.12,0.16,4
11978,4,0.21,-8.59,0.11,-0.13,-0.15,4
12003,4.08,0.18,-8.57,0.05,0.06,0.03,4
12028,4.13,0.16,-8.67,-0.13,0.06,-0.03,4
12052,3.99,0.16,-8.61,0.17,0,0.1,4
12077,4.03,0.17,-8.5,0.05,0,0.03,4
12101,4.09,0.15,-8.59,0.05,0,-0.03,4
12126,4.06,0.22,-8.56,0.11,0.24,0.03,4
12151,4.03,0.23,-8.61,-0.01,-0.07,-0.09,4
12175,4.04,0.19,-8.59,0.05,0,0.03,4
12200,4.12,0.14,-8.56,-0.07,0.12,0.03,4
12224,4.05,0.12,-8.68,-0.13,0.06,-0.09,4
12249,4.03,0.16,-8.57,0.17,0.24,-0.09,4
12273,4.09,0.22,-8.58,-0.01,-0.13,-0.03,4
12299,4.07,0.26,-8.57,0.11,-0.13,0.16,4
12324,4.07,0.2,-8.61,0.05,0,0.1,4
12348,4.06,0.2,-8.72,0.05,0.12,0.03,4
12373,4.09,0.25,-8.66,0.05,0.18,-0.03,4
12397,4.02,0.08,-8.63,-0.07,0.12,-0.03,4
12422,4.09,0.17,-8.5,0.05,0.12,0.1,4
12446,4.07,0.21,-8.56,0.11,-0.07,-0.03,4
12471,4.07,0.21,-8.62,-0.07,0,0.1,4
12496,4.05,0.19,-8.56,-0.07,0.12,0.03,4
12520,4.09,0.28,-8.6,0.11,0,-0.03,4
12545,4.05,0.21,-8.68,-0.07,0.06,-0.03,4
12569,4.03,0.24,-8.64,0.11,0.12,-0.21,4
12594,4.06,0.15,-8.63,-0.13,0.06,0.03,4
12618,4.07,0.19,-8.53,-0.07,0.06,-0.03,4
12643,4.05,0.17,-8.59,0.17,-0.13,-0.03,4
12668,4.06,0.15,-8.66,0.05,-0.13,-0.09,4
12692,4.02,0.22,-8.5,0.11,0.24,-0.09,4
12717,4.13,0.23,-8.58,0.29,0.12,-0.03,4
12742,4.04,0.18,-8.53,-0.01,0,0.1,4
12767,4.08,0.22,-8.63,-0.07,-0.07,0.1,4
12792,4.12,0.26,-8.64,-0.07,0,-0.09,4
12816,4.05,0.21,-8.55,0.11,-0.07,0.03,4
12841,4.05,0.21,-8.59,0.11,0.06,-0.09,4
12865,4.07,0.23,-8.66,-0.01,0,-0.09,4
12890,4.08,0.22,-8.61,0.05,0,0.03,4
12914,4.05,0.1,-8.64,0.05,0.06,0.16,4
12939,4.14,0.18,-8.58,0.11,0.06,0.34,4
12964,4.12,0.21,-8.57,-0.07,-0.13,0.16,4
12988,4.13,0.24,-8.52,0.11,0.12,0.03,4
13013,4.03,0.23,-8.58,-0.01,0.06,0.22,4
13037,4.02,0.21,-8.59,0.11,0.3,-0.09,4
13062,4.12,0.2,-8.64,0.05,-0.07,-0.03,4
13086,4.05,0.19,-8.62,-0.13,0,-0.03,4
13111,4.04,0.18,-8.57,-0.07,0.06,0.1,4
13136,4.11,0.27,-8.56,0.23,-0.07,0.03,4
13160,4.08,0.23,-8.59,-0.07,0.12,0.16,4
13186,4,0.22,-8.63,-0.01,-0.07,-0.15,4
13210,4.04,0.19,-8.61,0.05,0.06,0.1,4
13235,4.05,0.19,-8.6,-0.01,0.06,-0.03,4
13259,4.05,0.13,-8.53,0.11,0.18,0.1,4
13284,4.07,0.23,-8.61,-0.13,0,0.1,4
13309,4.14,0.24,-8.59,-0.01,-0.07,0.03,4
13333,4.09,0.17,-8.5,0.05,-0.07,-0.03,4
13358,4.02,0.17,-8.61,-0.01,-0.07,-0.15,4
13382,4.05,0.17,-8.65,-0.01,0.06,0.03,4
13407,4.11,0.18,-8.61,-0.01,0.18,-0.03,4
13432,3.94,0.2,-8.66,0.11,-0.07,-0.03,4
13456,4.02,0.2,-8.58,0.11,0,-0.03,4
13481,4.08,0.22,-8.55,-0.2,-0.07,0.1,4
13505,4.08,0.22,-8.53,0.05,-0.07,-0.09,4
13530,4.04,0.18,-8.58,0.11,0,0.16,4
13554,4.1,0.17,-8.57,0.05,0.18,0.1,4
13579,4.13,0.2,-8.57,0.11,0.12,-0.15,4
13605,4.03,0.18,-8.65,0.29,-0.07,-0.15,4
13629,4.09,0.23,-8.57,-0.01,0.06,0.1,4
13654,4.09,0.23,-8.56,0.11,-0.07,-0.09,4
13678,4.05,0.25,-8.62,0.17,-0.07,-0.15,4
13703,4.03,0.19,-8.61,-0.01,0.06,-0.03,4
13727,4.05,0.23,-8.57,-0.07,0,0.03,4
13752,4.1,0.22,-8.54,0.11,-0.13,-0.03,4
13777,4.07,0.21,-8.6,-0.01,-0.07,0.03,4
13801,4.05,0.16,-8.59,-0.01,0,0.16,4
13826,4.08,0.24,-8.63,-0.01,0.06,-0.09,4
13850,4.1,0.23,-8.61,-0.13,0.12,-0.09,4
13875,4.05,0.23,-8.6,0.11,0.06,0.03,4
13899,4.08,0.18,-8.57,0.05,0.06,-0.03,4
13924,4.1,0.21,-8.62,-0.07,-0.25,-0.03,4
13949,4.02,0.11,-8.61,0.05,-0.19,-0.15,4
13973,4.07,0.25,-8.63,-0.07,0,-0.03,4
13998,4.12,0.26,-8.56,-0.2,-0.13,0.16,4
14023,4.08,0.23,-8.6,-0.01,-0.07,-0.15,4
14048,4.03,0.22,-8.59,0.05,0.12,-0.03,4
14073,4.07,0.17,-8.6,0.11,0.24,0.16,4
14097,4.04,0.17,-8.56,-0.07,-0.07,-0.09,4
14122,4.06,0.15,-8.59,-0.01,0.06,0.03,4
14146,4.05,0.22,-8.59,0.17,-0.07,0.03,4
14171,4.13,0.22,-8.66,0.05,-0.07,0.03,4
14195,4.1,0.2,-8.64,-0.01,0,0.1,4
14220,4.02,0.16,-8.57,-0.13,0.12,-0.03,4
14245,4.08,0.16,-8.56,-0.01,0.24,0.1,4
14269,4.12,0.22,-8.61,0.05,0.06,0.03,4
14294,4.01,0.17,-8.59,-0.01,0.12,0.1,4
14318,4.07,0.16,-8.59,-0.01,0.24,-0.03,4
14343,4.06,0.2,-8.6,-0.01,0.12,0.03,4
14367,4.06,0.13,-8.6,0.05,-0.07,0.1,4
14392,4.02,0.12,-8.56,-0.07,-0.07,0.22,4
14417,4.07,0.16,-8.53,-0.13,0.06,-0.03,4
14441,4.1,0.22,-8.67,0.05,-0.13,0.03,4
14466,4.06,0.18,-8.48,-0.01,-0.07,0.1,4
14491,4.09,0.2,-8.62,-0.07,0,0.03,4
14516,4.08,0.2,-8.59,-0.01,0,0.03,4
14541,4.05,0.23,-8.61,0.11,0,0.1,4
14565,4.07,0.17,-8.62,-0.01,0.12,-0.03,4
14590,4.06,0.21,-8.58,0.05,-0.07,-0.09,4
14614,4.16,0.2,-8.57,-0.07,-0.07,-0.09,4
14639,4.05,0.15,-8.54,-0.01,-0.13,0.03,4
14663,4.06,0.22,-8.61,0.05,0.06,0.1,4
14688,4.11,0.23,-8.57,0.05,-0.19,0.03,4
14713,4.06,0.22,-8.57,0.05,0.06,-0.03,4
14737,4.08,0.23,-8.57,-0.13,0,0.1,4
14762,4.06,0.21,-8.68,0.11,0,-0.09,4
14786,4.1,0.23,-8.62,-0.01,-0.07,-0.03,4
14811,4.02,0.2,-8.65,-0.01,0.06,-0.03,4
14835,4.08,0.23,-8.59,0.11,0,-0.09,4
14860,4.15,0.23,-8.61,0.05,0,0.1,4
14885,4.11,0.18,-8.66,-0.01,0.12,-0.09,4
14909,4.07,0.2,-8.57,-0.07,0.06,-0.03,4
14934,4.1,0.21,-8.61,0.05,0,-0.09,4
14959,4.13,0.23,-8.61,0.17,0,-0.03,4
14984,4.07,0.16,-8.63,-0.07,-0.13,-0.03,4
15008,4.06,0.18,-8.55,0.11,0,-0.03,4
15033,4.13,0.19,-8.58,0.11,0.12,0.1,4
15058,4.1,0.11,-8.58,0.11,0.24,0.1,4
15082,4.05,0.19,-8.6,-0.01,-0.13,-0.15,4
15107,4.06,0.19,-8.56,0.05,0,-0.03,4
15131,4.19,0.15,-8.62,-0.2,-0.13,0.03,4
15156,4.06,0.24,-8.64,0.05,-0.13,-0.03,4
15181,4.04,0.21,-8.55,-0.2,0,0.1,4
15205,4.08,0.15,-8.58,0.05,0,-0.03,4
15230,4.06,0.18,-8.61,-0.13,0.06,-0.09,4
15254,4.01,0.17,-8.6,-0.01,0.06,0.1,4
15279,4.05,0.17,-8.6,0.05,-0.13,-0.03,4
15303,4.13,0.18,-8.63,-0.01,0,0.16,4
15328,4.01,0.14,-8.62,-0.01,0,-0.03,4
15353,4.09,0.23,-8.56,0.05,0.18,0.03,4
15377,4.05,0.23,-8.56,0.05,0,-0.15,4
15403,4.09,0.15,-8.68,0.11,0.06,0.03,4
15427,4.02,0.23,-8.59,-0.01,-0.13,-0.09,4
15452,4.12,0.21,-8.62,0.11,0,0.03,4
15476,4.09,0.24,-8.51,-0.07,0.06,-0.03,4
15501,4.04,0.22,-8.62,0.23,0.24,-0.03,4
15526,4.05,0.17,-8.62,0.17,-0.13,0.03,4
15550,4.13,0.21,-8.59,-0.01,0,0.16,4
15575,4.08,0.21,-8.62,-0.07,0.06,0.03,4
15599,4.03,0.18,-8.63,0.05,0.06,0.16,4
15624,4.01,0.18,-8.59,-0.01,0.06,-0.03,4
15648,4.13,0.17,-8.63,-0.13,0,-0.03,4
15673,4.06,0.14,-8.51,0.23,0.06,-0.15,4
15698,4.14,0.19,-8.66,0.05,-0.13,0.16,4
15722,4.09,0.17,-8.56,-0.01,-0.07,-0.09,4
15747,4.12,0.2,-8.65,0.05,0,0.03,4
15771,4.01,0.21,-8.66,0.05,0.06,0.03,4
15796,4.14,0.17,-8.64,0.17,0,0.03,4
15821,4.07,0.23,-8.64,-0.01,0.12,-0.03,4
15845,4.04,0.17,-8.61,0.05,0,-0.03,4
15871,4.07,0.19,-8.59,0.11,-0.13,0.03,4
15895,4.03,0.21,-8.48,0.11,0.06,-0.03,4
15920,4.12,0.22,-8.6,-0.13,0.06,0.16,4
15944,4.03,0.14,-8.57,-0.01,0.06,-0.09,4
15969,4.09,0.21,-8.6,0.11,0.12,-0.03,4
15994,4.05,0.2,-8.54,0.17,0.06,0.03,4
16018,4.03,0.18,-8.56,-0.07,0.12,-0.03,4
16043,4.06,0.23,-8.55,-0.07,-0.07,0.03,4
16067,4.07,0.22,-8.57,-0.01,0.24,0.16,4
16092,4,0.21,-8.56,-0.07,0.06,0.1,4
16116,3.98,0.25,-8.51,0.11,0.12,0.1,4
16141,4.07,0.19,-8.63,-0.01,0.06,-0.15,4
16166,4.09,0.24,-8.64,0.05,0.06,0.03,4
16190,4.09,0.22,-8.46,0.23,0.18,0.1,4
16215,4.04,0.16,-8.58,0.05,0.12,0.1,4
16239,4.08,0.22,-8.51,-0.13,0.18,-0.09,4
16264,4.06,0.18,-8.58,-0.01,-0.07,0.03,4
16288,4.04,0.18,-8.67,0.05,0.12,-0.03,4
16313,4.05,0.18,-8.65,-0.07,0,-0.09,4
16339,4.11,0.2,-8.57,-0.01,0.06,-0.09,4
16363,4.05,0.19,-8.61,0.11,0.12,-0.09,4
16388,4.04,0.24,-8.61,0.11,0,-0.15,4
16412,4.14,0.22,-8.53,-0.07,0.06,0.1,4
16437,4.05,0.2,-8.64,-0.26,-0.07,0.03,4
16462,4.04,0.15,-8.57,-0.2,-0.07,0.03,4
16486,4.08,0.21,-8.63,-0.07,-0.13,-0.03,4
16511,4.07,0.25,-8.69,-0.01,0,0.03,4
16535,4.05,0.21,-8.58,-0.01,0.12,0.1,4
16560,4.1,0.22,-8.56,-0.07,-0.13,0.03,4
16584,4.08,0.21,-8.61,-0.01,0.06,-0.03,4
16609,4.08,0.22,-8.61,-0.07,0.06,0.03,4
16634,4.04,0.23,-8.5,0.11,0,0.03,4
16658,4.11,0.22,-8.62,0.17,0.06,-0.03,4
16683,4.14,0.23,-8.6,0.05,0.12,-0.09,4
16707,4.04,0.23,-8.59,-0.01,0.18,-0.03,4
16732,4.06,0.19,-8.61,-0.07,0.18,0.1,4
16756,4.13,0.24,-8.55,0.05,0.06,-0.15,4
16782,4.06,0.23,-8.56,0.23,0.12,0.16,4
16807,4.07,0.17,-8.53,-0.01,0,-0.03,4
16831,4.08,0.22,-8.6,-0.2,0,0.03,4
16856,4.11,0.24,-8.53,-0.01,0,-0.21,4
16880,4.04,0.2,-8.62,0.11,0,0.16,4
16905,4.02,0.22,-8.58,0.05,0.18,0.03,4
16930,4.07,0.22,-8.66,-0.01,-0.07,0.1,4
16954,4.08,0.18,-8.64,0.05,-0.07,-0.21,4
16979,4.03,0.24,-8.59,0.05,0,0.03,4
17003,4.11,0.23,-8.57,0.05,0,-0.09,4
17028,4.07,0.17,-8.51,0.05,0.06,-0.03,4
17052,4.02,0.15,-8.58,-0.01,0.06,0.03,4
17077,4.09,0.22,-8.65,0.17,-0.07,-0.03,4
17102,4.11,0.21,-8.59,0.17,-0.07,0.03,4
17126,4.04,0.23,-8.6,0.29,0.12,-0.03,4
17151,4.04,0.18,-8.68,-0.13,0.12,0.1,4
17175,4.05,0.19,-8.59,-0.01,0,-0.15,4
17200,4.06,0.2,-8.62,-0.01,-0.07,0.16,4
17224,4.08,0.15,-8.6,-0.01,0.24,0.03,4
17249,4.07,0.19,-8.55,0.11,-0.07,0.03,4
17275,4.11,0.16,-8.62,0.11,0.24,0.03,4
17299,4.08,0.12,-8.61,0.05,0,0.1,4
17324,4.04,0.19,-8.55,-0.07,0.18,-0.15,4
17348,4.05,0.16,-8.65,-0.01,-0.07,0.03,4
17373,4.07,0.19,-8.66,-0.07,0,-0.03,4
17397,4.02,0.17,-8.64,0.05,0.06,0.03,4
17422,4.01,0.23,-8.6,-0.13,0.12,0.03,4
17447,4.1,0.24,-8.64,-0.01,0,-0.03,4
17471,4.02,0.17,-8.64,-0.01,0,0.16,4
17496,4.06,0.15,-8.59,-0.01,0.12,0.03,4
17520,4.06,0.23,-8.62,-0.01,0.18,0.03,4
17545,4.12,0.19,-8.67,0.05,0.06,0.03,4
17570,4.07,0.17,-8.58,0.17,0.24,-0.09,4
17594,4.04,0.19,-8.51,-0.01,0.06,0.03,4
17619,4.13,0.2,-8.68,-0.07,0,0.1,4
17643,4.06,0.23,-8.59,-0.07,0,-0.09,4
17668,4.01,0.21,-8.57,-0.01,0.12,0.03,4
17692,4.15,0.23,-8.59,-0.01,0,0.16,4
17717,4.09,0.17,-8.64,-0.07,0.06,-0.03,4
17742,4,0.18,-8.56,0.05,0,-0.03,4
17767,4.09,0.23,-8.66,-0.07,0.12,-0.03,4
17792,4.09,0.23,-8.56,0.05,0.06,0.22,4
17816,4.08,0.17,-8.51,0.23,0.12,0.1,4
17841,4.02,0.18,-8.61,0.05,0.06,0.16,4
17865,4.07,0.18,-8.61,0.05,0.06,-0.03,4
17890,4.09,0.18,-8.59,-0.01,0.06,0.03,4
17915,4.02,0.14,-8.57,-0.01,0,0.03,4
17939,4.03,0.21,-8.57,0.17,-0.07,-0.03,4
17964,4.15,0.17,-8.61,-0.01,0,0.1,4
17988,4.03,0.15,-8.49,0.11,-0.07,-0.15,4
18013,4.09,0.17,-8.62,0.05,0.06,0.03,4
18037,4.14,0.22,-8.62,0.17,0,-0.09,4
18062,4.08,0.22,-8.6,-0.13,0.12,0.1,4
18087,4.03,0.16,-8.53,0.05,0,0.03,4
18111,4.08,0.2,-8.55,0.05,0,-0.09,4
18136,4.09,0.19,-8.57,-0.01,0.06,0.03,4
18160,4.04,0.21,-8.61,0.11,-0.25,0.03,4
18185,4.04,0.24,-8.66,0.11,0,-0.09,4
18210,4.08,0.18,-8.62,0.05,0.12,0.1,4
18234,4.1,0.22,-8.61,-0.07,0,0.03,4
18259,4.09,0.23,-8.57,0.11,-0.13,-0.15,4
18284,4.1,0.19,-8.63,-0.13,-0.07,0.1,4
18309,4.12,0.21,-8.58,0.05,0.12,-0.03,4
18333,4.03,0.21,-8.58,0.05,-0.07,-0.09,4
18358,4.02,0.22,-8.57,-0.07,0,0.03,4
18383,4.14,0.21,-8.57,-0.01,0.18,-0.09,4
18407,4.09,0.17,-8.59,-0.07,0.12,0.1,4
18432,4.07,0.17,-8.61,0.11,0.12,-0.03,4
18456,4.08,0.24,-8.62,-0.13,0,0.03,4
18481,4.11,0.19,-8.6,-0.01,0,0.1,4
18505,4.03,0.19,-8.61,0.05,-0.07,-0.03,4
18530,4.13,0.22,-8.55,0.05,-0.07,0.03,4
18555,4.07,0.2,-8.57,-0.13,0.12,0.16,4
18579,4.07,0.19,-8.67,-0.07,-0.07,-0.15,4
18604,4.06,0.18,-8.6,0.05,-0.07,-0.21,4
18628,4.11,0.23,-8.53,-0.07,0.06,0.03,4
18653,4.14,0.18,-8.55,0.11,0,-0.03,4
18677,4.02,0.18,-8.6,0.11,-0.19,0.03,4
18703,4.06,0.22,-8.55,0.17,-0.07,-0.03,4
18728,4.13,0.2,-8.63,0.05,0.12,-0.03,4
18752,4.08,0.2,-8.5,0.11,-0.13,0.16,4
18777,4.04,0.18,-8.57,0.11,-0.13,-0.03,4
18801,4.06,0.21,-8.52,-0.13,-0.07,-0.03,4
18826,4.03,0.22,-8.55,0.05,0.12,0.1,4
18851,4.06,0.16,-8.65,-0.07,0.06,-0.15,4
18875,4.06,0.19,-8.61,0.29,-0.13,-0.03,4
18900,4.12,0.19,-8.58,-0.01,-0.37,-0.09,4
18924,4.07,0.21,-8.43,0.11,0.06,-0.03,4
18949,4.05,0.25,-8.56,-0.01,-0.13,0.03,4
18973,4.08,0.25,-8.58,0.11,-0.07,0.1,4
18998,4.12,0.21,-8.55,0.05,0,0.1,4
19023,4,0.14,-8.67,0.05,0,-0.03,4
19047,4.05,0.25,-8.6,0.05,0,-0.09,4
19072,4.14,0.17,-8.56,-0.13,-0.13,0.03,4
19096,4.02,0.19,-8.56,0.05,0,-0.03,4
19122,4.02,0.16,-8.68,0.17,0.06,-0.21,4
19146,4.07,0.23,-8.58,0.05,0.06,-0.03,4
19171,4.09,0.23,-8.61,-0.01,-0.19,0.03,4
19196,4.1,0.21,-8.53,0.11,-0.07,-0.09,4
19220,3.98,0.19,-8.57,0.05,0,0.03,4
19245,4.06,0.2,-8.56,-0.07,0,-0.03,4
19269,4.13,0.19,-8.55,-0.01,0.12,0.1,4
19294,4.02,0.18,-8.51,0.05,-0.07,-0.09,4
19319,4.03,0.21,-8.51,-0.01,0.06,0.03,4
19343,4.11,0.27,-8.63,0.11,-0.07,-0.03,4
19368,4.06,0.18,-8.56,-0.07,0,0.03,4
19392,4.05,0.19,-8.58,0.11,0.06,-0.09,4
19417,4.11,0.16,-8.48,0.05,0.06,0.1,4
19441,4.06,0.2,-8.57,0.05,-0.07,0.03,4
19466,4.03,0.18,-8.61,-0.07,-0.07,-0.03,4
19491,4.08,0.17,-8.62,0.11,0.06,0.03,4
19515,4.08,0.16,-8.61,0.05,0,-0.15,4
19540,4.02,0.19,-8.62,-0.13,0,0.03,4
19564,4.07,0.16,-8.56,0.05,0.06,-0.03,4
19590,4.06,0.22,-8.57,0.11,0,0.1,4
19614,4.06,0.19,-8.6,0.23,-0.13,0.16,4
19639,4.01,0.23,-8.6,-0.01,0,-0.03,4
19664,4.1,0.22,-8.6,-0.13,-0.07,0.03,4
19688,4.11,0.22,-8.61,-0.01,0,0.1,4
19713,4,0.23,-8.57,0.05,0,0.16,4
19737,4.04,0.2,-8.62,-0.2,0.06,0.03,4
19762,4.08,0.2,-8.6,-0.13,0,-0.09,4
19786,4.11,0.2,-8.55,0.17,0,0.03,4
19811,4.01,0.2,-8.56,-0.01,0.06,0.03,4
19836,4.07,0.2,-8.61,0.11,0.18,-0.03,4
19860,4.11,0.17,-8.65,-0.01,-0.13,-0.03,4
19885,4.05,0.21,-8.52,0.11,0,0.1,4
19909,4.12,0.18,-8.66,0.11,0,0.1,4
19934,4.12,0.18,-8.51,0.05,0,-0.03,4
19959,4.08,0.22,-8.65,-0.01,0.06,-0.09,4
19983,4.06,0.23,-8.64,0.05,0.06,-0.09,4
20008,4.08,0.18,-8.58,0.05,0.12,0.03,4
20032,4.02,0.19,-8.59,0.23,-0.13,0.03,4
20057,4.02,0.19,-8.68,0.05,-0.07,0.03,4
20081,4.04,0.16,-8.58,0.05,-0.07,0.16,4
20107,4.13,0.19,-8.59,0.05,0.06,0.03,4
20132,4.07,0.16,-8.56,0.11,-0.07,0.03,4
20156,4.11,0.18,-8.59,0.17,-0.07,-0.03,4
20181,4.12,0.22,-8.62,-0.13,0.06,-0.03,4
20205,4.06,0.23,-8.56,-0.07,-0.07,0.16,4
20230,4.07,0.23,-8.63,-0.01,0,0.03,4
20254,4.06,0.21,-8.62,0.11,0.06,-0.09,4
20279,4.14,0.18,-8.56,0.05,-0.07,-0.15,4
20304,4.11,0.15,-8.55,0.05,0.06,0.1,4
20328,4.04,0.17,-8.61,0.11,0,-0.03,4
20353,4.12,0.23,-8.58,-0.01,0.06,-0.09,4
20377,4.1,0.17,-8.57,-0.01,0.06,-0.09,4
20402,4.03,0.17,-8.62,-0.01,0,0.03,4
20426,4.09,0.23,-8.53,-0.13,0,0.03,4
20451,4.1,0.25,-8.57,-0.01,0.12,0.1,4
20476,4.09,0.2,-8.62,0.17,0.06,-0.03,4
20500,4.06,0.2,-8.67,0.05,0.12,-0.15,4
20526,4.1,0.19,-8.52,0.05,0.12,-0.03,4
20550,4.08,0.2,-8.67,-0.07,0.12,-0.03,4
20575,4.07,0.21,-8.66,-0.01,0.06,0.03,4
20600,4.04,0.24,-8.47,-0.01,0,0.03,4
20624,4.07,0.19,-8.57,0.05,0.18,-0.15,4
20649,4.02,0.16,-8.59,0.05,0.12,0.1,4
20673,4.03,0.14,-8.64,-0.13,0.12,0.16,4
20698,4.08,0.2,-8.61,-0.07,-0.07,-0.03,4
20722,4.11,0.22,-8.62,-0.13,0.06,0.22,4
20747,4.02,0.19,-8.59,-0.01,-0.07,0.03,4
20772,4.06,0.15,-8.55,-0.13,0,0.1,4
20796,4.05,0.18,-8.56,-0.01,0.06,0.03,4
20821,4.08,0.2,-8.57,0.11,0.18,-0.03,4
20845,4.03,0.17,-8.61,-0.01,0,0.1,4
20870,4.13,0.19,-8.65,-0.07,0.18,0.16,4
20894,4.11,0.17,-8.56,0.23,0.12,-0.09,4
20919,4.03,0.23,-8.62,-0.01,0.12,0.03,4
20944,4.03,0.21,-8.54,-0.07,0.12,0.03,4
20968,4.09,0.23,-8.53,0.05,0.18,0.03,4
20994,4.08,0.2,-8.67,-0.07,0.06,0.03,4
21018,4.06,0.2,-8.58,0.17,0.12,0.1,4
21043,4.11,0.22,-8.51,0.11,0.06,0.1,4
21067,4.12,0.18,-8.62,0.05,0.12,0.1,4
21092,4.08,0.18,-8.67,-0.01,0.18,0.1,4
21117,4.04,0.19,-8.61,0.05,-0.07,0.1,4
21141,4.12,0.22,-8.57,0.05,-0.07,0.03,4
21166,4.01,0.18,-8.58,0.05,0.12,-0.03,4
21190,4.07,0.2,-8.59,-0.07,0,-0.03,4
21215,4.09,0.22,-8.39,0.05,-0.07,-0.09,4
21240,4.08,0.2,-8.58,0.11,0,-0.03,4
21264,4.07,0.18,-8.61,-0.07,0.06,-0.03,4
21289,4.09,0.14,-8.54,-0.13,0,-0.09,4
21313,4.1,0.24,-8.58,-0.01,0.12,0.03,4
21338,4.01,0.16,-8.59,-0.2,0.06,-0.03,4
21362,4.04,0.14,-8.49,-0.01,-0.13,-0.03,4
21387,4.09,0.21,-8.61,0.11,0,-0.03,4
21412,4.08,0.15,-8.6,0.11,0,-0.09,4
21436,4.03,0.24,-8.56,0.11,0.06,0.03,4
21461,4.06,0.2,-8.7,0.11,0,0.03,4
21485,4.06,0.2,-8.66,0.11,0,-0.03,4
21511,4.1,0.18,-8.66,0.23,-0.07,-0.15,4
21535,4.07,0.17,-8.47,0.05,0,0.03,4
21560,4.1,0.26,-8.64,0.05,0.06,0.03,4
21585,4.11,0.22,-8.66,0.23,0,-0.21,4
21609,3.95,0.23,-8.61,0.11,0.06,0.03,4
21634,4.04,0.19,-8.57,-0.07,0,0.1,4
21658,4.14,0.25,-8.6,-0.01,0.12,0.1,4
21683,4.09,0.25,-8.59,0.05,0.06,0.03,4
21707,4.02,0.14,-8.64,-0.01,0.06,-0.09,4
21732,4.12,0.23,-8.5,0.11,0,-0.21,4
21757,4.12,0.17,-8.55,-0.07,-0.07,-0.09,4
21781,4.09,0.18,-8.51,0.11,0,0.03,4
21806,4.02,0.23,-8.6,0.11,-0.07,-0.09,4
21830,4.16,0.24,-8.67,0.11,-0.07,0.03,4
21855,4.07,0.17,-8.61,-0.01,0,-0.09,4
21880,4.03,0.17,-8.69,-0.01,0.12,0.03,4
21904,4.11,0.19,-8.55,0.11,0,0.03,4
21929,4.11,0.18,-8.53,0.05,0,-0.03,4
21953,4.05,0.15,-8.52,-0.01,-0.07,0.03,4
21979,4.1,0.2,-8.64,-0.01,-0.19,0.03,4
22003,4.13,0.19,-8.65,0.05,0.06,0.1,4
22028,4.07,0.18,-8.6,-0.13,-0.07,-0.09,4
22053,4.05,0.19,-8.52,0.05,0,-0.03,4
22077,4.11,0.23,-8.61,-0.07,0,0.1,4
22102,4.11,0.15,-8.57,-0.01,-0.13,0.1,4
22126,3.97,0.23,-8.58,0.05,0.06,0.1,4
22151,4.05,0.23,-8.73,-0.01,-0.19,-0.03,4
22175,4.1,0.2,-8.59,-0.13,0,0.03,4
22200,4.05,0.23,-8.6,0.05,0.06,-0.03,4
22225,4.07,0.2,-8.57,-0.01,0,0.1,4
22249,4.11,0.15,-8.55,0.05,-0.13,-0.09,4
22274,4.04,0.22,-8.55,-0.07,-0.07,-0.09,4
22298,3.98,0.22,-8.63,0.05,-0.13,0.1,4
22323,4.07,0.21,-8.62,0.05,0,0.03,4
22347,4.09,0.21,-8.6,0.05,0,0.03,4
22372,4.04,0.18,-8.59,-0.01,0.12,0.03,4
22397,4.01,0.18,-8.53,-0.01,0,-0.15,4
22421,4.14,0.23,-8.57,0.11,0,0.16,4
22446,4.09,0.17,-8.66,-0.07,0,0.1,4
22471,4.04,0.2,-8.55,-0.01,0.06,-0.03,4
22496,4.11,0.21,-8.6,0.11,-0.07,0.16,4
22521,4.13,0.23,-8.6,0.17,0.06,-0.03,4
22545,4.07,0.25,-8.64,0.11,-0.07,0.03,4
22570,4.03,0.19,-8.62,-0.01,0,-0.09,4
22594,4.14,0.22,-8.62,-0.01,0.12,-0.09,4
22619,4.09,0.23,-8.54,0.11,0.06,0.1,4
22643,4.04,0.18,-8.56,-0.13,0,0.16,4
22668,4.07,0.24,-8.55,0.05,0,-0.09,4
22693,4.1,0.21,-8.57,-0.01,-0.07,-0.21,4
22717,4.05,0.23,-8.52,0.11,0.12,0.1,4
22742,4.04,0.26,-8.69,0.17,0.06,0.03,4
22766,4.07,0.19,-8.53,-0.01,-0.07,0.1,4
22791,4.07,0.2,-8.54,-0.01,0.06,0.1,4
22815,4.04,0.21,-8.56,0.05,0.06,-0.09,4
22840,4.1,0.19,-8.57,-0.01,-0.13,0.1,4
22865,4.11,0.25,-8.62,-0.2,0,0.1,4
22889,4.04,0.19,-8.67,0.05,0.06,-0.09,4
22914,4.05,0.18,-8.57,0.05,-0.07,0.03,4
22939,4.09,0.27,-8.57,-0.01,-0.07,-0.03,4
22964,4.08,0.17,-8.58,-0.07,-0.07,0.03,4
22989,4.02,0.15,-8.53,0.05,0.18,-0.15,4
23013,4.09,0.2,-8.55,0.05,0,0.1,4
23038,4.11,0.18,-8.66,0.11,0.06,0.03,4
23062,4.12,0.14,-8.54,0.05,-0.07,-0.09,4
23087,4.03,0.17,-8.58,0.05,0,0.1,4
23111,4.14,0.21,-8.52,0.05,-0.19,0.03,4
23136,4.07,0.21,-8.6,0.05,0.06,-0.15,4
23161,4.03,0.17,-8.62,-0.2,0.12,-0.09,4
23185,4.11,0.25,-8.61,-0.01,0,-0.03,4
23210,4.08,0.21,-8.55,0.05,-0.07,0.16,4
23234,4.02,0.23,-8.5,-0.2,0.12,0.1,4
23259,4.08,0.15,-8.58,0.29,-0.13,-0.03,4
23283,4.11,0.23,-8.58,-0.13,0.12,0.03,4
23308,4.07,0.24,-8.57,-0.07,-0.07,-0.21,4
23333,4.03,0.18,-8.57,-0.13,-0.13,-0.03,4
23358,4.13,0.18,-8.59,-0.2,-0.07,-0.03,4
23383,4.11,0.22,-8.65,-0.07,0,0.03,4
23407,4.05,0.15,-8.49,0.05,-0.07,-0.03,4
23432,4.02,0.15,-8.62,-0.01,0.06,-0.03,4
23456,4.13,0.2,-8.61,-0.01,0,0.03,4
23481,4.05,0.21,-8.55,0.17,0,0.16,4
23506,4.12,0.23,-8.57,0.05,0,-0.03,4
23530,4.14,0.19,-8.59,-0.07,0,0.1,4
23555,4.12,0.18,-8.73,-0.13,0.06,0.03,4
23579,4.01,0.16,-8.57,-0.07,0.24,0.1,4
23604,4.04,0.19,-8.56,-0.07,0.06,-0.09,4
23629,4.07,0.2,-8.57,0.11,0.06,-0.03,4
23653,4.08,0.13,-8.64,-0.01,-0.07,-0.03,4
23678,4.01,0.19,-8.51,-0.01,-0.07,0.22,4
23702,4.11,0.19,-8.59,0.05,0,0.16,4
23727,4.09,0.23,-8.64,-0.01,0.24,0.03,4
23751,4.07,0.24,-8.66,0.05,-0.13,0.1,4
23776,4.07,0.2,-8.71,-0.01,0,0.03,4
23801,4.07,0.25,-8.62,-0.13,0,0.03,4
23826,4.08,0.2,-8.55,0.11,0,0.1,4
23851,4.01,0.2,-8.61,0.11,0,-0.03,4
23875,4.09,0.24,-8.64,0.05,0.12,-0.09,4
23900,4.09,0.22,-8.58,-0.07,0.18,0.03,4
23924,4.08,0.22,-8.67,-0.07,0.06,0.03,4
23949,4.07,0.18,-8.58,-0.07,-0.07,0.16,4
23974,4.08,0.19,-8.66,0.05,-0.07,-0.03,4
23998,4.04,0.21,-8.54,0.11,0,-0.03,4
24023,4.06,0.18,-8.5,0.11,-0.13,-0.09,4
24047,4.12,0.21,-8.5,0.11,0.06,0.16,4
24072,4.09,0.19,-8.59,0.05,0.12,0.1,4
24096,4.03,0.19,-8.59,-0.01,0.12,-0.03,4
24121,4.08,0.2,-8.66,0.11,0.06,0.1,4
24146,4.15,0.15,-8.58,-0.01,0.06,0.03,4
24170,4.09,0.22,-8.59,-0.07,0.06,0.03,4
24195,4.01,0.19,-8.55,0.05,0.06,0.22,4
24219,4.1,0.23,-8.58,-0.01,-0.07,-0.03,4
24244,4.08,0.22,-8.58,0.05,0,0.1,4
24269,4.01,0.17,-8.61,0.17,0.12,-0.03,4
24293,4.09,0.17,-8.55,-0.01,0.3,-0.03,4
24319,4.17,0.16,-8.54,0.11,0,-0.09,4
24343,4.08,0.23,-8.54,0.05,0,0.1,4
24368,4.03,0.22,-8.54,0.11,0,-0.09,4
24392,4.15,0.2,-8.56,-0.07,-0.07,-0.03,4
24417,4.08,0.23,-8.67,0.05,0,0.03,4
24442,4.02,0.19,-8.59,0.17,0.06,-0.09,4
24466,4.04,0.2,-8.64,0.05,0,-0.03,4
24491,4.13,0.16,-8.6,0.05,0,-0.21,4
24515,4.03,0.21,-8.64,-0.07,-0.07,-0.15,4
24540,4.02,0.12,-8.56,-0.07,0,-0.09,4
24564,4.05,0.24,-8.6,0.05,0.06,-0.03,4
24589,4.14,0.18,-8.56,0.11,0,-0.03,4
24614,4.02,0.24,-8.6,0.11,0,0.16,4
24638,4.12,0.24,-8.61,0.05,-0.07,-0.09,4
24663,4.14,0.2,-8.55,-0.07,0.06,-0.09,4
24687,4.07,0.28,-8.52,0.05,0,0.03,4
24712,4.09,0.17,-8.59,-0.13,0.06,0.1,4
24736,4.13,0.21,-8.54,-0.01,0.06,-0.09,4
24761,4.1,0.26,-8.62,-0.07,0.12,-0.03,4
24786,4.06,0.19,-8.59,0.17,0.06,0.16,4
24811,4.07,0.14,-8.54,-0.01,0,-0.09,4
24836,4.16,0.2,-8.66,0.05,0.12,-0.09,4
24860,4.04,0.13,-8.49,-0.13,0,-0.09,4
24885,4.08,0.22,-8.65,-0.01,0,-0.03,4
24910,4.07,0.18,-8.57,-0.07,0,0.1,4
24934,4.09,0.2,-8.59,-0.07,0.12,-0.09,4
24959,4.09,0.22,-8.57,0.05,0.06,-0.03,4
24983,4.04,0.14,-8.51,-0.01,0.06,-0.03,4
25008,4.12,0.23,-8.63,-0.07,0.06,-0.03,4
25032,4.04,0.17,-8.59,0.05,-0.19,-0.03,4
25057,4.04,0.18,-8.68,-0.07,-0.07,-0.03,4
25082,4.06,0.25,-8.54,-0.01,-0.07,0.1,4
25106,4.11,0.24,-8.65,-0.01,0.06,0.1,4
25131,4.02,0.17,-8.53,-0.07,0.06,0.03,4
25155,4.08,0.15,-8.56,0.05,-0.07,0.03,4
25180,4.12,0.2,-8.56,-0.07,0.06,0.1,4
25204,4.05,0.11,-8.56,-0.01,0.06,0.03,4
25229,4.03,0.17,-8.53,-0.01,0.06,-0.09,4
25254,4.08,0.2,-8.54,0.05,-0.07,-0.03,4
25278,4.1,0.2,-8.63,0.11,-0.13,-0.27,4
25304,4.07,0.19,-8.55,0.05,0,-0.03,4
25328,4.11,0.24,-8.61,0.05,0.06,0.1,4
25353,4.09,0.25,-8.61,0.11,-0.07,-0.15,4
25378,4.05,0.2,-8.55,-0.07,-0.07,0.16,4
25402,4.04,0.18,-8.53,0.05,0,0.16,4
25427,4.08,0.23,-8.55,-0.01,-0.07,0.1,4
25451,4.11,0.24,-8.63,0.05,0.06,-0.09,4
25476,4.03,0.21,-8.6,0.05,0,-0.03,4
25500,4.12,0.26,-8.55,-0.2,0,-0.09,4
25525,4.13,0.23,-8.69,0.17,0.06,0.03,4
25550,4.02,0.22,-8.66,-0.01,-0.13,-0.03,4
25574,4.07,0.24,-8.61,-0.13,0.06,0.03,4
25599,4.06,0.23,-8.55,0.11,0,0.16,4
25623,4.05,0.21,-8.6,-0.01,-0.07,0.03,4
25648,4.09,0.17,-8.58,0.05,-0.13,0.03,4
25672,4.05,0.22,-8.57,-0.01,-0.07,-0.03,4
25697,4.13,0.22,-8.59,-0.07,0,-0.09,4
25723,4.09,0.21,-8.5,-0.07,0.06,-0.09,4
25747,4.09,0.15,-8.6,0.23,0,-0.09,4
25772,4.09,0.18,-8.49,0.11,-0.07,-0.03,4
25796,4.11,0.24,-8.59,-0.01,-0.07,0.16,4
25821,3.98,0.19,-8.55,0.05,0,-0.03,4
25845,4.1,0.24,-8.63,0.17,0,-0.15,4
25870,4.1,0.15,-8.53,0.05,0.06,-0.03,4
25895,4.02,0.17,-8.63,-0.01,0,-0.09,4
25919,4.03,0.18,-8.58,0.05,-0.07,-0.09,4
25944,4.1,0.21,-8.6,-0.01,0.06,0.16,4
25968,4.08,0.18,-8.56,-0.01,0.24,-0.09,4
25993,4.12,0.2,-8.61,0.11,0,0.03,4
26018,4.05,0.17,-8.57,0.17,-0.07,-0.03,4
26042,4.08,0.23,-8.59,-0.07,0.06,-0.09,4
26067,4.01,0.17,-8.64,0.05,-0.13,-0.09,4
26091,4.05,0.16,-8.62,0.11,0,-0.03,4
26116,4.13,0.25,-8.52,-0.01,0.06,-0.03,4
26140,4.07,0.21,-8.56,0.05,0.12,-0.15,4
26165,4.06,0.15,-8.63,0.05,0.12,0.22,4
26191,4.04,0.19,-8.63,0.11,-0.19,-0.15,4
26215,4.12,0.18,-8.64,0.11,0.06,-0.03,4
26240,4.08,0.19,-8.63,0.05,-0.13,-0.09,4
26264,4.04,0.22,-8.58,-0.07,-0.07,0.03,4
26289,4.13,0.25,-8.56,-0.07,-0.07,0.03,4
26313,4.11,0.17,-8.58,0.11,-0.13,0.03,4
26338,4,0.17,-8.55,-0.01,-0.07,0.03,4
26363,4.1,0.25,-8.58,0.05,0.06,-0.15,4
26387,4.13,0.15,-8.49,0.05,0,0.1,4
26412,4.09,0.19,-8.66,-0.01,-0.13,-0.03,4
26436,4.03,0.19,-8.57,-0.01,0,-0.15,4
26461,4.11,0.19,-8.64,-0.07,0.12,-0.03,4
26485,4.08,0.16,-8.53,0.05,0.18,-0.09,4
26510,4.08,0.19,-8.61,0.05,-0.07,0.03,4
26535,4.07,0.19,-8.58,-0.13,0,0.03,4
26559,4.12,0.23,-8.7,-0.07,0.18,-0.03,4
26584,4.09,0.19,-8.66,-0.01,0.18,0.1,4
26608,4.03,0.21,-8.54,-0.07,0.06,0.1,4
26634,4.11,0.16,-8.5,-0.01,-0.13,0.03,4
26659,4.09,0.13,-8.53,0.17,0.12,-0.09,4
26683,4.06,0.17,-8.62,0.05,-0.07,-0.03,4
26708,4.07,0.23,-8.57,-0.01,-0.07,0.1,4
26732,4.13,0.22,-8.65,0.05,0.12,0.03,4
26757,4.02,0.17,-8.63,0.23,0.12,-0.21,4
26781,4.08,0.2,-8.6,0.17,0.06,-0.03,4
26806,4.12,0.22,-8.58,-0.07,0,-0.15,4
26831,4.01,0.2,-8.51,-0.07,-0.13,-0.03,4
26855,4.07,0.18,-8.58,0.11,-0.07,-0.03,4
26880,4.08,0.19,-8.59,-0.13,0,0.03,4
26904,4.09,0.17,-8.61,-0.07,0.18,-0.09,4
26929,4.07,0.16,-8.6,0.11,0.24,-0.09,4
26953,4.04,0.19,-8.62,0.05,0,-0.09,4
26978,4.11,0.17,-8.52,-0.13,0,0.22,4
27003,4.1,0.17,-8.59,-0.26,0,-0.09,4
27027,4.04,0.18,-8.58,0.05,0,-0.09,4
27053,4.11,0.2,-8.55,-0.01,0.06,0.1,4
27077,4.08,0.2,-8.64,-0.13,0.06,-0.15,4
27102,4.02,0.23,-8.55,-0.01,0.06,0.1,4
27127,4.06,0.21,-8.54,0.17,-0.07,0.03,4
27151,4.07,0.21,-8.61,0.23,-0.13,-0.15,4
27176,4.1,0.19,-8.62,-0.07,0.06,-0.03,4
27200,4.05,0.2,-8.61,-0.07,0.06,-0.09,4
27225,4.06,0.25,-8.51,-0.01,0,0.03,4
27249,4.14,0.17,-8.61,0.17,0.06,-0.09,4
27274,4.06,0.2,-8.67,0.11,0,-0.15,4
27299,4.06,0.19,-8.55,-0.2,0,0.03,4
27323,4.08,0.2,-8.62,0.05,-0.07,0.03,4
27348,4.12,0.17,-8.63,-0.01,-0.07,0.16,4
27372,4.01,0.23,-8.59,0.11,0.06,0.03,4
27397,4.1,0.21,-8.57,-0.01,0.06,0.16,4
27421,4.09,0.25,-8.51,0.05,-0.13,0.03,4
27446,4.03,0.2,-8.48,0.17,0,0.03,4
27471,4.08,0.19,-8.56,0.11,0,0.03,4
27495,4.09,0.15,-8.48,0.11,0.06,-0.09,4
27521,4.06,0.19,-8.55,-0.13,0,0.03,4
27545,4.05,0.18,-8.54,-0.01,0,-0.03,4
27570,4.06,0.21,-8.57,-0.01,0.06,0.1,4
27594,4.11,0.2,-8.53,-0.13,0.12,0.03,4
27619,4.08,0.2,-8.51,0.05,0.06,0.03,4
27644,4.05,0.23,-8.58,0.05,0.12,-0.09,4
27668,4.1,0.22,-8.55,0.05,0,-0.09,4
27693,4.02,0.22,-8.49,0.05,0.06,-0.09,4
27717,4.09,0.17,-8.63,0.05,0,0.1,4
27742,4.1,0.21,-8.67,0.17,-0.07,-0.09,4
27767,4.08,0.18,-8.65,-0.01,0.06,0.03,4
27791,4.11,0.19,-8.49,0.23,0.06,0.03,4
27816,4.13,0.19,-8.66,-0.01,0.18,-0.09,4
27840,4.11,0.17,-8.54,-0.01,-0.07,-0.09,4
27865,4.13,0.17,-8.64,0.05,0,0.03,4
27889,4.07,0.22,-8.63,0.11,0.06,0.03,4
27914,4.06,0.21,-8.61,-0.07,0.06,-0.09,4
27939,4.14,0.22,-8.65,0.05,0.06,0.03,4
27963,4.06,0.2,-8.64,0.11,0.06,-0.03,4
27988,4.09,0.2,-8.6,-0.01,0.06,0.1,4
28012,4.11,0.17,-8.58,-0.07,0.12,0.03,4
28038,4.06,0.15,-8.53,-0.01,0.06,-0.09,4
28062,4.05,0.22,-8.56,0.05,0.06,-0.09,4
28087,4.13,0.21,-8.64,0.05,-0.07,-0.03,4
28112,4.1,0.19,-8.6,-0.01,0.06,0.1,4
28136,4.02,0.2,-8.66,-0.13,0,0.03,4
28161,4.1,0.25,-8.6,-0.01,0.06,0.1,4
28185,4.12,0.16,-8.63,-0.13,0.18,-0.03,4
28210,4.07,0.2,-8.57,-0.01,-0.07,-0.03,4
28234,4.05,0.18,-8.53,-0.01,-0.13,-0.03,4
28259,4.14,0.19,-8.71,-0.01,0,0.03,4
28284,4.15,0.2,-8.6,0.05,0.12,0.16,4
28308,4.02,0.2,-8.52,0.11,0.06,-0.15,4
28333,4.07,0.2,-8.55,0.05,-0.07,-0.03,4
28357,4.12,0.2,-8.53,0.05,-0.13,-0.03,4
28382,4.11,0.19,-8.66,-0.01,0.18,0.16,4
28407,3.98,0.23,-8.59,-0.07,0,0.03,4
28431,4.06,0.22,-8.58,0.05,-0.07,-0.09,4
28456,4.11,0.24,-8.56,0.05,0.24,-0.03,4
28481,4.05,0.14,-8.48,0.11,0.12,-0.09,4
28506,4.03,0.21,-8.59,0.11,0.06,0.22,4
28530,4.13,0.22,-8.59,0.05,0,0.03,4
28555,4.08,0.22,-8.59,0.05,0.18,-0.03,4
28580,4.07,0.21,-8.61,0.05,0,0.03,4
28604,4.11,0.25,-8.54,0.11,0.06,-0.09,4
28629,4.09,0.23,-8.59,0.11,-0.07,-0.09,4
28653,4.06,0.16,-8.59,0.11,0.18,0.03,4
28678,4.08,0.24,-8.59,0.11,0.06,-0.09,4
28702,4.1,0.22,-8.62,0.05,0,-0.03,4
28727,4.09,0.16,-8.67,-0.01,-0.13,0.16,4
28752,4,0.19,-8.58,0.05,0.12,0.03,4
28776,4.13,0.24,-8.57,0.05,0,-0.03,4
28801,4.09,0.2,-8.5,0.11,0.24,-0.03,4
28825,4.07,0.16,-8.55,0.05,0,-0.09,4
28850,4.12,0.22,-8.58,-0.07,-0.07,-0.27,4
28874,4.17,0.25,-8.66,-0.07,0,-0.09,4
28899,4.08,0.17,-8.63,-0.01,0.18,0.1,4
28924,4.03,0.2,-8.58,-0.13,0.06,-0.09,4
28949,4.15,0.25,-8.62,0.05,0,-0.09,4
28974,4.06,0.24,-8.57,0.05,0.06,-0.03,4
28998,4.03,0.17,-8.59,-0.01,0.12,-0.09,4
29023,4.11,0.25,-8.55,-0.07,0.18,-0.03,4
29048,4.13,0.23,-8.56,0.17,0,-0.15,4
29072,4.12,0.26,-8.61,0.05,0.12,0.03,4
29097,4.04,0.2,-8.53,-0.07,0,-0.03,4
29121,4.14,0.17,-8.62,-0.01,0,0.1,4
29146,4.06,0.18,-8.58,0.11,0.12,0.03,4
29170,4.05,0.25,-8.59,0.05,0.06,0.03,4
29195,4.09,0.17,-8.58,-0.07,-0.13,0.03,4
29220,4.1,0.21,-8.59,-0.01,0,0.03,4
29244,4.06,0.2,-8.58,-0.01,0.12,0.03,4
29269,4.07,0.21,-8.53,0.05,0.12,-0.03,4
29293,4.11,0.22,-8.48,-0.07,0.24,-0.15,4
29318,4.09,0.23,-8.65,0.11,0.24,0.1,4
29342,4.06,0.17,-8.63,-0.01,0.18,-0.09,4
29367,4.07,0.21,-8.63,-0.07,0,0.03,4
29392,4.13,0.33,-8.61,-0.07,-0.07,0.03,4
29417,4.08,0.21,-8.55,0.11,0.06,0.03,4
29442,4.02,0.24,-8.58,0.05,-0.07,-0.09,4
29466,4.13,0.22,-8.57,0.11,0.18,-0.15,4
29491,4.12,0.23,-8.67,0.05,0,-0.09,4
29515,4.04,0.17,-8.6,0.05,-0.13,-0.15,4
29540,4.09,0.14,-8.67,0.17,-0.13,0.1,4
29565,4.08,0.27,-8.56,-0.01,-0.07,0.1,4
29589,4.02,0.15,-8.52,0.11,0.06,0.1,4
29614,4.06,0.23,-8.62,0.23,-0.07,0.03,4
29638,4.08,0.2,-8.56,0.05,0,-0.03,4
29663,4.03,0.21,-8.55,-0.07,0,0.03,4
29688,4.07,0.2,-8.57,-0.07,0.06,-0.03,4
29712,4.13,0.21,-8.54,0.11,-0.19,-0.09,4
29737,4.12,0.15,-8.55,-0.13,0.18,0.03,4
29761,4.03,0.22,-8.49,-0.07,0,0.03,4
29786,4.07,0.23,-8.57,-0.07,0.12,-0.09,4
29810,4.12,0.16,-8.63,0.05,0,-0.15,4
29835,4.08,0.23,-8.61,0.05,0.06,0.1,4
29861,4.11,0.18,-8.59,-0.07,0,0.03,4
29885,4.02,0.19,-8.52,-0.01,0,-0.09,4
29910,4.13,0.21,-8.58,0.05,0,0.03,4
29934,4.05,0.24,-8.59,-0.07,-0.07,0.1,4
29959,4.06,0.24,-8.55,-0.01,0.06,0.03,4
29983,4.08,0.22,-8.61,0.05,0.12,0.1,4
30008,4.07,0.15,-8.54,-0.01,0.06,-0.03,4
30033,4.02,0.2,-8.61,0.11,0.12,-0.03,4
30057,4.08,0.23,-8.59,0.11,0,0.16,4
30082,4.15,0.22,-8.56,0.11,-0.07,-0.03,4
30106,4.08,0.18,-8.54,0.11,0.06,0.1,4
30131,4.08,0.19,-8.63,-0.07,0.24,-0.09,4
30155,4.1,0.22,-8.61,0.17,0,-0.03,4
30180,4.11,0.19,-8.62,-0.01,0,-0.03,4
30205,4.02,0.18,-8.58,-0.01,-0.07,-0.09,4
30229,4.1,0.17,-8.47,-0.07,-0.13,-0.03,4
30254,4.12,0.23,-8.61,-0.13,-0.07,-0.15,4
30279,4.09,0.2,-8.58,0.05,0,0.1,4
30304,4.09,0.22,-8.56,0.11,0,-0.09,4
30329,4.13,0.24,-8.6,-0.01,0.06,-0.03,4
30353,4.05,0.19,-8.6,-0.07,0.06,-0.03,4
30378,4.06,0.21,-8.51,0.11,0.12,0.16,4
30402,4.03,0.21,-8.53,0.05,0.12,-0.09,4
30427,4.1,0.27,-8.61,-0.01,0.06,0.03,4
30451,4.06,0.17,-8.49,0.05,0.18,-0.09,4
30476,3.98,0.15,-8.52,-0.13,0,0.16,4
30501,4.1,0.23,-8.67,-0.07,-0.07,0.03,4
30525,4.1,0.2,-8.59,0.11,-0.07,0.03,4
30550,4.05,0.21,-8.61,0.11,-0.07,-0.03,4
30574,4.06,0.16,-8.65,-0.13,-0.13,-0.03,4
30599,4.07,0.21,-8.53,-0.07,-0.07,-0.09,4
30623,4.1,0.16,-8.62,-0.01,-0.07,-0.15,4
30648,4.05,0.17,-8.6,0.05,0,-0.03,4
30673,4.1,0.18,-8.56,-0.01,-0.13,0.03,4
30697,4.11,0.21,-8.62,-0.07,0.12,0.03,4
30723,4.03,0.19,-8.59,0.11,-0.07,-0.09,4
30747,4.08,0.14,-8.54,0.11,0.06,0.16,4
30772,4.16,0.25,-8.6,-0.01,0,-0.09,4
30797,4.05,0.22,-8.56,-0.01,0.12,0.03,4
30821,4.05,0.18,-8.54,0.11,0.06,-0.03,4
30846,4.07,0.2,-8.59,-0.01,0.24,0.22,4
30870,4.04,0.21,-8.59,-0.01,0,-0.03,4
30895,3.99,0.23,-8.59,-0.01,0,-0.03,4
30919,4.07,0.17,-8.6,0.05,-0.07,0.03,4
30944,4.18,0.21,-8.65,0.11,0.06,-0.09,4
30969,4.06,0.22,-8.56,-0.07,0.18,0.03,4
30993,4.03,0.21,-8.66,0.11,0,-0.03,4
31018,4.09,0.19,-8.66,0.05,0,-0.03,4
31042,4.08,0.21,-8.54,-0.13,0,0.03,4
31067,4.01,0.19,-8.59,-0.07,0,-0.03,4
31091,4.11,0.22,-8.58,0.05,-0.13,-0.09,4
31116,4.18,0.13,-8.66,-0.01,-0.07,-0.03,4
31141,4.06,0.21,-8.61,-0.07,0,-0.09,4
31165,4.04,0.22,-8.6,0.05,0,-0.15,4
31190,4.11,0.21,-8.52,0.11,0.12,-0.09,4
31215,4.11,0.22,-8.57,-0.07,-0.07,-0.03,4
31240,4.02,0.21,-8.57,0.05,0.06,0.16,4
31264,4.08,0.17,-8.62,-0.13,-0.07,-0.09,4
31289,4.11,0.2,-8.62,0.05,0.12,-0.03,4
31314,4.1,0.2,-8.51,0.05,0,-0.09,4
31338,4.07,0.19,-8.58,-0.01,0.06,-0.03,4
31363,4.15,0.24,-8.57,-0.01,-0.13,-0.09,4
31387,4.15,0.25,-8.59,-0.07,-0.07,0.1,4
31412,4.11,0.2,-8.59,0.11,0,-0.15,4
31437,4.12,0.22,-8.61,0.11,0.12,0.03,4
31461,4.1,0.21,-8.56,-0.01,0,-0.15,4
31486,4.05,0.21,-8.55,-0.07,0,0.16,4
31510,4.03,0.2,-8.66,-0.01,-0.13,-0.21,4
31535,4.08,0.24,-8.65,0.05,0.06,-0.03,4
31559,4.07,0.19,-8.58,-0.01,0.06,-0.03,4
31584,4.14,0.2,-8.58,0.11,-0.13,-0.15,4
31610,4.09,0.21,-8.55,-0.07,0.06,0.22,4
31634,4.08,0.25,-8.67,0.11,-0.19,-0.03,4
31659,4.12,0.19,-8.57,0.05,0,0.1,4
31683,4.01,0.14,-8.65,0.05,-0.07,-0.03,4
31708,4.09,0.19,-8.59,0.11,0,-0.03,4
31732,4.07,0.24,-8.58,0.05,0.06,0.03,4
31757,4.05,0.13,-8.6,-0.01,0.06,0.1,4
31782,4.06,0.2,-8.64,0.11,0.06,-0.03,4
31806,4.09,0.2,-8.62,0.05,0,-0.09,4
31831,4.14,0.13,-8.58,0.11,0,0.03,4
31855,4.09,0.22,-8.56,0.23,-0.07,-0.03,4
31880,4.12,0.21,-8.57,-0.01,0.12,-0.09,4
31904,4.1,0.18,-8.57,-0.01,0,0.03,4
31929,4.02,0.24,-8.55,-0.07,-0.13,0.1,4
31954,4.09,0.17,-8.57,0.23,0.18,0.03,4
31978,4.15,0.21,-8.48,-0.01,0,0.03,4
32003,4.11,0.2,-8.55,-0.07,0.18,-0.03,4
32027,4,0.26,-8.53,0.11,0.06,0.03,4
32052,4.08,0.23,-8.56,0.11,0.06,-0.15,4
32078,4.09,0.19,-8.56,-0.01,0.06,0.16,4
32102,4.07,0.16,-8.68,0.05,0,0.1,4
32127,4.04,0.22,-8.53,0.05,0.06,-0.09,4
32151,4.09,0.22,-8.64,-0.07,0,0.03,4
32176,4.1,0.21,-8.66,-0.01,0,0.16,4
32200,4.07,0.15,-8.58,0.11,0,0.1,4
32225,4.15,0.21,-8.64,0.05,0.24,-0.09,4
32250,4.07,0.17,-8.54,0.11,0.06,0.1,4
32274,4.04,0.17,-8.61,0.11,0.12,-0.03,4
32299,4.07,0.18,-8.55,0.05,-0.07,0.03,4
32323,4.09,0.16,-8.66,-0.13,0.12,-0.03,4
32348,4.09,0.22,-8.52,0.05,-0.07,-0.09,4
32372,3.97,0.24,-8.6,-0.01,0.12,-0.09,4
32397,4.11,0.22,-8.63,-0.07,-0.07,0.03,4
32422,4.09,0.18,-8.6,0.11,-0.07,-0.03,4
32446,4.06,0.18,-8.57,-0.13,-0.07,0.1,4
32471,4.13,0.2,-8.55,-0.01,-0.07,-0.03,4
32495,4.14,0.24,-8.58,-0.07,-0.07,-0.09,4
32521,4.06,0.23,-8.49,0.17,0,0.03,4
32546,4.08,0.24,-8.64,0.23,0.06,-0.09,4
32570,4.12,0.24,-8.54,-0.01,0,-0.03,4
