t_ms,ax,ay,az,gx,gy,gz,label
5,8.31,2.19,-1.45,8.4,-3.48,3.45,4
29,8.31,2.15,-1.58,9.68,-2.63,6.93,4
54,8.61,2.01,-1.72,10.48,-0.55,9.73,4
79,9.04,1.95,-1.72,11.33,-2.08,10.64,4
103,9.1,1.85,-1.95,12.06,-8.66,9.67,4
128,9.23,1.79,-2.09,11.57,-6.77,7.47,4
152,9.27,1.72,-2.14,9.68,-7.14,5.64,4
177,9.16,1.65,-2.17,6.82,-10.31,3.39,4
201,8.88,1.74,-2.2,3.83,-9.39,1.74,4
226,8.82,1.82,-1.99,0.9,-2.5,1.62,4
251,9.07,1.8,-1.95,-0.93,-0.25,1.19,4
275,8.87,1.8,-1.89,-3.18,-4.58,-0.64,4
300,9.1,1.84,-1.8,-4.34,4.93,-1.98,4
324,8.97,1.9,-1.66,-4.59,-2.69,-2.28,4
349,8.86,1.78,-1.66,-4.34,-5.74,-1.67,4
373,8.73,1.83,-1.44,-3.91,1.28,-0.21,4
398,8.76,1.83,-1.46,-3.18,-1.1,0.71,4
423,8.74,1.76,-1.41,-2.33,-1.96,1.62,4
447,8.75,1.7,-1.36,-1.41,0.06,1.62,4
472,8.83,1.72,-1.33,-0.07,1.7,0.28,4
496,8.88,1.66,-1.31,0.66,2.98,-1.31,4
521,8.69,1.74,-1.54,-0.5,3.23,-2.1,4
546,8.41,1.81,-1.44,-1.05,-0.25,-2.16,4
570,8.6,1.77,-1.25,-0.62,7.31,-0.64,4
595,8.72,1.9,-1.47,0.17,7.92,2.9,4
619,8.75,1.82,-1.39,1.39,-1.28,5.34,4
644,9.15,1.87,-1.52,2.79,-8.72,6.19,4
668,9.06,1.91,-1.52,3.52,-6.83,5.34,4
693,8.97,1.78,-1.61,4.01,-0.61,3.69,4
718,8.97,1.77,-1.62,5.48,2.01,2.47,4
742,9.14,1.73,-1.75,7.43,-3.6,2.29,4
767,9.02,1.66,-1.89,8.28,-7.44,1.74,4
791,8.92,1.68,-2.13,7.24,-5.07,1.25,4
816,8.86,1.63,-2.18,4.56,-3.11,0.34,4
840,8.89,1.61,-2.2,2.24,-0.13,-0.15,4
865,8.8,1.52,-2.24,-0.2,-2.08,-0.33,4
890,8.88,1.62,-2.14,-2.57,0.73,-0.03,4
914,8.89,1.64,-1.87,-3.73,1.76,0.64,4
939,8.89,1.62,-1.76,-4.1,-0.61,0.34,4
963,8.96,1.68,-1.71,-3.24,1.09,-0.64,4
988,9.03,1.64,-1.73,-2.51,0.06,-1.49,4
1012,8.9,1.68,-1.68,-3,-1.71,-1.98,4
1037,8.81,1.75,-1.75,-3.98,0.85,-1.98,4
1062,8.77,1.81,-1.57,-4.16,1.95,-2.83,4
1086,8.65,1.89,-1.46,-3.49,4.14,-2.83,4
1111,8.58,1.75,-1.41,-1.66,2.86,-1.79,4
1135,8.61,1.8,-1.4,0.35,0.73,-0.57,4
1160,8.65,1.97,-1.55,1.69,0.85,0.58,4
1184,8.51,1.9,-1.56,2.85,-0.74,1.07,4
1209,8.59,1.8,-1.64,4.32,1.09,2.05,4
1234,8.7,1.85,-1.76,4.93,1.15,3.14,4
1258,8.83,1.84,-1.9,4.8,0.54,3.57,4
1283,8.9,1.74,-1.99,4.5,-1.28,3.33,4
1307,8.98,1.69,-1.92,4.13,-3.66,2.78,4
1332,9.01,1.64,-2.08,2.98,0.48,1.68,4
1357,8.93,1.58,-2.11,1.76,3.47,0.52,4
1381,9.05,1.56,-2.24,0.41,-0.49,0.4,4
1406,8.96,1.62,-2.1,-0.93,-5.68,0.34,4
1430,8.84,1.65,-2,-2.76,-2.14,-0.15,4
1455,8.76,1.69,-1.83,-4.28,1.95,-0.64,4
1479,8.88,1.73,-1.6,-4.4,3.04,-1.31,4
1504,8.86,1.75,-1.46,-3.31,0.24,-1.37,4
1530,8.76,1.69,-1.49,-1.35,-2.08,-1.31,4
1554,8.72,1.78,-1.51,0.23,0.12,-1.31,4
1579,8.69,1.77,-1.54,1.82,2.56,-1.18,4
1603,8.75,1.67,-1.5,3.71,-1.47,-0.09,4
1628,8.49,1.69,-1.6,5.05,-3.24,1.01,4
1652,8.65,1.65,-1.69,5.96,-0.07,2.17,4
1677,8.72,1.59,-1.93,5.78,-1.77,2.17,4
1702,8.76,1.55,-2.1,5.29,-0.25,1.99,4
1726,8.8,1.6,-2.07,4.44,-0.13,2.29,4
1751,8.81,1.58,-2.19,2.85,-1.83,2.23,4
1775,8.74,1.53,-2.01,1.15,2.31,1.44,4
1800,8.8,1.51,-2.04,0.29,3.53,1.13,4
1824,8.94,1.5,-2.15,-0.32,-0.37,2.35,4
1849,8.88,1.52,-2.09,-1.78,-3.05,3.27,4
1874,8.77,1.54,-2.06,-3.91,-0.31,2.72,4
1898,8.87,1.65,-1.85,-5.81,5.61,1.25,4
1923,9.21,1.63,-1.46,-4.59,8.47,-0.15,4
1947,9.23,1.68,-1.37,-1.84,1.22,-1.31,4
1972,8.87,1.56,-1.51,0.05,-3.66,-2.47,4
1997,8.84,1.65,-1.47,2.37,-0.13,-2.59,4
2021,8.82,1.77,-1.7,3.52,-1.96,-2.16,4
2046,8.77,1.45,-2.15,1.57,-6.1,-1.79,4
2071,8.68,1.34,-2.2,-2.63,-4.88,-2.04,4
2096,8.62,0.76,-1.83,-4.65,3.35,-2.04,4
2120,8.68,1.63,-2.19,-5.74,-6.53,-2.34,4
2145,8.63,1.74,-1.9,-7.7,12.19,-5.45,4
2170,9.22,1.59,-1.94,-8.43,21.95,-7.22,4
2194,8.78,1.79,-1.94,-8.67,-2.44,-6.31,4
2219,8.95,1.55,-1.6,-7.82,-1.04,-4.54,4
2243,10.02,1.79,-1.41,-5.5,6.58,-4.78,4
2268,8.15,2.12,-2.03,0.29,-92.44,-2.04,4
2292,8.84,2.23,-1.89,-4.65,-41.89,-3.07,4
2317,8.17,2.03,-2.03,-4.46,13.72,-4.23,4
2342,8.72,2.21,-1.81,-4.83,0.48,-4.42,4
2366,8.72,2.1,-1.77,-1.11,-5.49,-3.38,4
2392,8.59,2.14,-1.76,0.96,-3.48,-0.94,4
2416,8.69,2.13,-1.87,2.73,-1.77,-0.82,4
2441,8.6,2.15,-2.13,4.07,-0.31,-0.88,4
2466,8.7,1.99,-2.31,4.93,4.39,0.4,4
2490,8.85,1.92,-2.9,2.67,-8.72,0.16,4
2515,9.04,1.78,-3.28,-3,-13.72,0.34,4
2539,8.59,1.85,-3.1,-9.83,-17.44,1.62,4
2564,8.56,1.91,-2.99,-14.59,-22.87,0.95,4
2588,8.72,1.99,-2.71,-17.33,15.3,-1.92,4
2613,8.73,1.82,-2.33,-18.18,33.78,-5.15,4
2638,8.56,2,-2.21,-15.87,23.9,-5.39,4
2662,8.72,1.96,-1.91,-12.27,15.54,-1.61,4
2688,8.56,2.28,-1.59,-8.98,10.06,-0.33,4
2712,8.77,2.18,-1.52,-3.12,8.17,-0.64,4
2737,8.4,2.08,-1.57,0.78,-9.94,0.71,4
2761,8.55,2.26,-1.53,0.66,3.78,1.25,4
2786,8.84,2.27,-1.81,1.76,4.02,1.8,4
2811,8.75,2.21,-1.75,2.43,-1.35,2.29,4
2835,9.05,2.02,-1.7,2,1.89,1.99,4
2860,8.84,2.09,-1.89,1.33,4.45,0.4,4
2884,9.12,2.01,-1.83,0.05,15.3,-1.49,4
2909,8.75,2.13,-1.88,-1.41,-0.68,-2.22,4
2933,9.09,2.03,-1.86,-3.55,-0.37,-4.84,4
2958,9.21,2.08,-1.95,-4.77,12.68,-8.5,4
2983,8.89,1.95,-1.85,-4.46,1.34,-11.37,4
3007,8.7,2.12,-1.7,-3.73,-0.13,-10.51,4
3032,8.35,2.13,-1.62,-2.09,-1.53,-9.48,4
3056,8.47,2.34,-1.66,-0.87,2.13,-6.49,4
3082,8.49,2.14,-1.82,-0.93,-0.92,-4.66,4
3107,8.65,2.21,-2.16,-1.9,-2.81,-3.99,4
3131,8.39,2.2,-2.39,-4.16,-27.93,-3.56,4
3156,8.36,2.19,-2.15,-9.16,-13.42,-4.9,4
3180,9.31,2.22,-1.95,-11.48,25.18,-5.45,4
3205,8.34,2.26,-2.03,-10.44,-11.28,-6.18,4
3229,8.69,2.4,-1.84,-12.09,-11.35,-6.37,4
3254,8.57,2.52,-1.49,-12.51,-18.05,-12.77,4
3280,9.01,2.53,-1.36,-7.76,37.8,-16,4
3304,8.83,2.44,-1.8,-4.52,3.9,-14.66,4
3329,8.02,2.28,-2.08,-5.13,-48.05,-12.28,4
3353,8.05,2.67,-2.49,-9.65,-7.57,-6.25,4
3378,7.95,2.73,-2.07,-13.12,29.45,-2.53,4
3402,8.3,2.9,-1.84,-12.45,9.81,-2.65,4
3427,8.69,2.87,-1.55,-9.83,4.75,-4.11,4
3452,8.35,2.7,-1.3,-6.66,5.12,-3.68,4
3476,7.59,2.84,-1.8,-3.49,-3.91,2.78,4
3501,7.25,2.8,-1.49,-2.15,21.46,12.66,4
3526,7.76,2.9,-1.89,-2.21,30.85,18.39,4
3551,8.71,2.72,-1.12,-0.62,-1.83,19.42,4
3576,8.27,2.49,-0.96,3.83,-17.57,19,4
3600,8.75,2.66,-1.16,6.57,19.2,20.95,4
3625,9.22,2.35,-1.18,7.98,0.3,20.16,4
3649,9,2.35,-1.29,7.61,-27.2,16.25,4
3674,9.24,2.3,-1.38,5.96,0,12.05,4
3698,9.12,2.39,-1.35,5.6,-1.89,8.82,4
3723,9.22,2.61,-1.7,4.56,-10,5.52,4
3748,9.07,2.54,-1.63,2.79,-2.69,2.11,4
3773,8.75,2.43,-1.38,2.91,-4.82,-0.82,4
3798,8.83,2.3,-1.26,5.17,-4.15,-2.1,4
3822,8.88,2.55,-1.62,8.34,3.47,-3.68,4
3847,8.68,2.24,-1.6,8.83,-8.72,-5.21,4
3871,8.46,2.25,-1.83,9.07,-9.52,-4.97,4
3896,8.59,2.17,-1.82,8.83,1.09,-4.17,4
3921,8.75,2.25,-1.89,7.85,4.57,-3.32,4
3945,8.91,2.18,-1.86,7.24,-1.77,-2.83,4
3970,8.95,2.05,-1.85,6.33,-3.85,-3.38,4
3994,8.82,2.05,-1.79,4.62,-1.16,-4.36,4
4019,8.76,2.04,-1.8,2.91,3.72,-7.47,4
4043,8.96,2.25,-1.9,-0.5,18.53,-11.55,4
4068,9,2.31,-1.59,-2.09,20.97,-12.95,4
4093,8.87,2.37,-1.34,-1.48,10.79,-12.16,4
4118,8.61,2.38,-1.19,0.48,1.34,-10.51,4
4143,8.32,2.53,-0.99,3.83,-3.36,-7.59,4
4167,8.17,2.65,-1.22,7,1.28,-4.36,4
4192,8.19,2.44,-1.33,10.11,4.39,-1.49,4
4217,8.2,2.5,-1.5,13.4,-3.78,2.84,4
4241,8.43,2.38,-1.81,14.13,-8.66,6.93,4
4266,8.31,2.37,-2.22,11.27,-10.49,9.18,4
4290,8.43,2.21,-2.38,6.82,-9.64,9.61,4
4315,8.54,2.37,-2.62,1.09,-2.5,8.94,4
4339,8.53,2.44,-2.39,-4.22,1.4,7.23,4
4364,8.58,2.53,-2.24,-7.51,3.29,6.68,4
4389,8.69,2.43,-2.1,-8.91,3.41,6.68,4
4413,8.73,2.56,-1.88,-8.55,5,8.45,4
4438,9.04,2.6,-1.76,-7.76,3.72,10.34,4
4463,8.96,2.55,-1.86,-8.31,-1.71,11.01,4
4488,9.08,2.32,-1.78,-9.22,6.09,12.9,4
4512,9.19,2.22,-1.98,-9.46,5.54,14.36,4
4537,9.32,2.23,-1.91,-11.05,-4.52,11.62,4
4562,9.27,2.12,-1.82,-14.16,2.68,4.85,4
4586,9.15,1.88,-1.54,-14.95,12.25,-1.61,4
4611,8.74,1.91,-1.47,-13.98,10.73,-2.77,4
4635,8.75,1.88,-1.5,-13.49,12.68,-0.09,4
4660,9,1.76,-1.41,-11.35,11.4,2.72,4
4686,9.09,1.64,-1.21,-6.78,1.03,4.61,4
4710,8.88,1.76,-1.38,-3.37,-9.33,5.95,4
4735,8.81,1.85,-1.61,-2.94,-8.91,5.64,4
4759,8.61,1.9,-1.49,-3.61,-10.37,2.41,4
4784,8.39,1.9,-1.37,-4.77,-3.91,-0.39,4
4808,8.21,1.95,-1.4,-5.68,7.01,-1.73,4
4833,8.4,1.99,-1.31,-5.2,8.53,-1.86,4
4858,8.53,2.07,-1.18,-4.65,7.8,-0.82,4
4882,8.57,2.04,-0.97,-2.27,3.9,0.22,4
4907,8.42,2.28,-1.02,0.29,-1.53,1.25,4
4931,8.46,2.31,-1.04,2,7.37,2.72,4
4956,8.68,2.28,-0.89,3.95,9.57,4,4
4980,8.81,2.32,-1.02,6.76,0.73,3.63,4
5005,8.87,2.28,-1.06,8.83,-3.48,4.06,4
5030,8.71,2.26,-1.17,10.41,-0.25,4.73,4
5054,8.81,2.2,-1.08,12.61,0.42,5.71,4
5079,8.95,2.15,-1.33,14.32,-2.2,6.5,4
5103,9.13,2.19,-1.73,13.52,-2.93,6.07,4
5129,8.92,2.16,-1.71,10.48,-1.53,4.61,4
5154,9.16,2.21,-1.91,7.24,3.47,3.08,4
5178,9.19,2.12,-1.8,4.38,0.85,2.11,4
5203,9.18,2.05,-1.81,3.04,-0.07,1.01,4
5227,9.01,2.01,-1.79,0.84,2.25,-0.39,4
5252,8.98,2.04,-1.8,-1.23,1.46,-1,4
5276,8.82,1.9,-1.69,-3.49,2.43,-1.25,4
5301,8.95,1.95,-1.6,-4.34,5.85,-0.09,4
5326,8.93,1.99,-1.69,-4.59,1.4,1.07,4
5350,9.09,1.94,-1.57,-4.95,-0.13,1.19,4
5375,9.15,1.92,-1.54,-5.13,1.58,0.95,4
5399,9.34,1.94,-1.5,-5.38,-1.53,-1.31,4
5424,9.07,1.95,-1.52,-6.41,-4.27,-5.64,4
5448,8.93,1.9,-1.42,-7.45,5.24,-8.93,4
5473,8.71,1.92,-1.37,-7.27,8.65,-10.57,4
5498,8.39,2.03,-1.35,-6.54,2.62,-9.29,4
5522,8.24,1.92,-1.3,-6.17,7.68,-4.66,4
5547,8.22,1.93,-1.26,-5.01,10.36,1.32,4
5572,8.49,2,-1.23,-4.34,3.78,8.08,4
5597,8.93,1.99,-1.31,-4.34,3.47,12.47,4
5621,9.33,1.92,-1.16,-3.91,1.15,12.53,4
5646,9.3,2.05,-1,-2.09,-2.5,9,4
5671,9.04,2.22,-0.98,-0.56,-4.03,4.73,4
5695,8.75,2.32,-1.01,1.45,-1.28,1.62,4
5720,8.44,2.33,-1.02,5.35,-2.81,1.32,4
5744,8.51,2.35,-1.15,8.22,-8.17,3.08,4
5769,8.53,2.29,-1.48,8.89,-11.35,5.52,4
5794,8.76,2.24,-1.69,6.09,-14.21,7.17,4
5818,8.83,2.14,-1.71,1.51,-13.54,6.44,4
5843,9.06,2.26,-1.48,-3.91,-5.86,4.36,4
5867,9.33,2.21,-1.13,-6.54,0.06,0.03,4
5892,9.3,2.28,-0.8,-6.11,0.3,-5.64,4
5916,9.19,2.08,-0.66,-3.31,7.19,-9.48,4
5941,9.27,1.9,-0.69,1.09,13.59,-10.88,4
5967,9.44,1.6,-0.93,5.78,5.48,-11.43,4
5991,9.32,1.54,-1.11,7.73,-8.97,-12.28,4
6016,8.81,1.41,-1.29,7.3,-8.36,-13.32,4
6040,8.63,1.36,-1.19,7.91,9.45,-13.2,4
6065,8.75,1.37,-1.31,9.62,15.67,-10.09,4
6089,9.17,1.64,-1.71,11.27,-0.19,-6.61,4
6114,8.71,2.05,-2.01,8.34,-29.33,-6.31,4
6139,7.89,2.36,-2.17,-0.44,-22.81,-7.65,4
6163,8.57,2.32,-1.9,-8.24,16.58,-9.72,4
6189,9.29,2.31,-1.47,-10.74,16.58,-12.89,4
6213,9.33,2.3,-1.16,-9.46,-4.46,-16.49,4
6238,8.92,2.28,-1,-7.45,-2.08,-19.17,4
6263,8.5,2.44,-0.98,-4.46,3.53,-20.82,4
6287,8.85,2.7,-1.3,-2.09,14.2,-21.12,4
6312,8.71,2.76,-1.37,-0.87,2.68,-22.1,4
6336,8.38,2.76,-1.45,-0.74,-9.21,-20.45,4
6361,8.33,2.77,-1.41,0.29,0.79,-16.31,4
6386,8.61,2.77,-1.54,2.43,-4.21,-14.05,4
6411,8.88,2.66,-1.85,1.69,-5.68,-16.12,4
6436,8.73,2.68,-1.93,-2.02,-11.41,-18.87,4
6460,8.51,2.82,-1.91,-7.09,-12.75,-20.88,4
6485,8.17,2.78,-1.67,-10.26,3.04,-22.65,4
6509,8.17,3.07,-1.47,-12.39,11.28,-22.34,4
6534,8.33,3.22,-1.25,-13.06,6.15,-20.09,4
6559,8.49,3.39,-0.94,-9.95,1.7,-18.44,4
6584,8.19,3.41,-0.8,-5.5,-4.76,-16.92,4
6609,8.21,3.49,-0.76,-2.82,-1.77,-15.21,4
6633,8.17,3.6,-0.83,-0.01,0.91,-14.29,4
6658,8.25,3.56,-1.03,3.52,-2.26,-12.22,4
6682,8.15,3.76,-1.21,5.6,-8.85,-9.78,4
6707,8.26,3.79,-1.23,5.9,-10.19,-9.05,4
6731,8.28,3.74,-1.13,6.51,-2.87,-10.39,4
6756,8.43,3.8,-1.43,6.33,4.02,-11.67,4
6781,8.39,3.88,-1.57,4.87,-5.13,-12.16,4
6805,8.11,3.94,-1.61,3.59,-10.43,-11.55,4
6831,7.94,4.04,-1.79,1.57,-4.58,-10.57,4
6855,8.02,3.93,-1.88,-2.09,-0.13,-10.88,4
6880,8.05,4.02,-1.95,-6.78,1.95,-11.06,4
6905,7.88,4.06,-1.68,-9.46,3.35,-10.82,4
6929,7.57,4.09,-1.53,-10.2,3.9,-8.87,4
6954,7.3,4.09,-1.34,-9.04,6.52,-5.27,4
6978,7.48,4.12,-1.37,-5.99,5.3,-0.27,4
7003,7.51,4.03,-1.56,-2.76,-8.05,5.83,4
7027,7.4,3.99,-1.7,-2.09,-16.89,10.64,4
7052,7.58,4.01,-2,-3.31,-6.96,11.86,4
7077,7.65,3.93,-1.96,-6.17,-7.26,11.74,4
7102,7.76,3.98,-1.98,-8.98,-2.44,11.74,4
7127,7.91,4.04,-1.92,-10.62,-0.37,11.19,4
7151,8.04,4.1,-1.69,-11.29,-4.33,11.07,4
7176,8.26,4.04,-1.67,-10.99,-1.77,10.95,4
7200,8.31,3.94,-1.46,-10.38,-3.97,11.07,4
7225,8.64,3.85,-1.34,-8.73,-7.63,10.71,4
7250,8.46,3.76,-1.26,-6.96,-13.78,9.24,4
7274,8.39,3.64,-1.35,-5.93,-10,8.63,4
7300,8.35,3.64,-1.4,-4.4,-8.54,9.36,4
7324,8.26,3.55,-1.61,-4.34,-13.85,11.99,4
7349,8.34,3.6,-1.65,-5.87,-8.66,14,4
7374,8.29,3.59,-1.75,-8.12,-11.41,14.49,4
7398,8.43,3.61,-1.75,-11.84,-9.27,15.03,4
7423,8.71,3.62,-1.63,-15.07,-0.61,14.06,4
7447,8.88,3.72,-1.33,-16.72,2.19,9.91,4
7472,8.98,3.74,-0.98,-16.11,5.36,4.24,4
7496,8.67,3.75,-0.83,-12.88,3.78,-0.45,4
7522,8.32,3.74,-0.81,-7.27,4.75,-0.76,4
7547,8.08,3.68,-0.96,-2.21,-1.35,1.86,4
7571,8.12,3.74,-1.38,1.33,-6.35,5.58,4
7596,8.12,3.48,-1.62,1.94,-9.88,6.86,4
7620,8.12,3.31,-1.69,0.05,-5.13,6.5,4
7645,8.44,3.27,-1.75,-2.15,5.24,7.11,4
7669,8.79,3.21,-1.74,-2.63,-3.54,5.64,4
7694,8.58,3.19,-1.68,-3.43,-10.61,2.41,4
7719,8.44,3.17,-1.7,-4.1,6.82,-0.09,4
7743,8.34,3.37,-1.67,-3.61,1.89,1.25,4
7768,8.23,3.28,-1.62,-2.94,-9.94,3.27,4
7792,8.15,3.28,-1.66,-3.06,-3.97,4.43,4
7817,8.27,3.27,-1.71,-4.59,-1.16,4.55,4
7842,8.37,3.31,-1.71,-6.29,-0.37,4.18,4
7866,8.45,3.28,-1.65,-7.27,3.72,4.3,4
7891,8.58,3.27,-1.49,-7.51,3.04,5.22,4
7915,8.75,3.33,-1.38,-7.76,-0.92,5.46,4
7940,8.82,3.24,-1.3,-7.09,1.15,3.69,4
7965,8.67,3.2,-1.27,-6.23,3.78,1.01,4
7990,8.53,3.26,-1.4,-5.56,0.67,-0.45,4
8015,8.34,3.3,-1.52,-6.54,1.58,-0.15,4
8039,8.22,3.33,-1.39,-7.57,6.76,2.11,4
8064,8.42,3.28,-1.4,-7.94,5.3,4.73,4
8088,8.8,3.38,-1.24,-7.45,3.96,5.64,4
8113,8.85,3.28,-1.35,-6.54,0.48,3.69,4
8137,8.69,3.3,-1.38,-6.96,0.91,0.16,4
8162,8.56,3.27,-1.43,-7.82,3.78,-2.1,4
8187,8.45,3.3,-1.36,-8.55,5.73,-3.2,4
8211,8.34,3.29,-1.22,-7.94,6.82,-4.05,4
8236,8.34,3.36,-1.1,-6.41,5.24,-3.62,4
8260,8.37,3.35,-1.02,-4.34,5.67,-3.2,4
8285,8.26,3.41,-0.85,-1.66,5.67,-3.14,4
8309,8.22,3.44,-0.97,2.24,4.81,-3.2,4
8334,8.18,3.47,-1.03,6.15,1.09,-2.16,4
8359,8.24,3.44,-1.17,8.71,-1.22,-1,4
8383,8.33,3.36,-1.22,11.02,0.18,0.89,4
8408,8.43,3.37,-1.28,13.04,-4.15,2.53,4
8433,8.61,3.23,-1.41,14.44,-5,3.51,4
8458,8.67,3.25,-1.63,14.93,-6.65,3.82,4
8483,8.58,3.19,-1.75,13.95,-11.65,3.33,4
8507,8.45,3.18,-1.89,11.27,-7.75,2.72,4
8532,8.4,3.14,-1.92,8.04,-5,2.41,4
8556,8.28,3.17,-2.03,3.95,-5.86,3.02,4
8581,8.45,3.12,-2.01,-0.74,-1.47,4.43,4
8605,8.71,3.25,-1.9,-4.77,-1.04,5.28,4
8630,8.79,3.21,-1.81,-7.39,-2.2,4.67,4
8655,8.69,3.2,-1.66,-8.98,-2.5,2.66,4
8679,8.59,3.27,-1.62,-9.95,-0.13,-0.64,4
8704,8.43,3.23,-1.46,-10.32,4.51,-2.71,4
8728,8.32,3.22,-1.49,-9.77,5.18,-3.01,4
8753,8.28,3.15,-1.35,-9.16,1.28,-2.83,4
8778,8.22,3.12,-1.44,-8.73,2.56,-2.1,4
8803,8.27,2.99,-1.43,-8,2.5,-0.21,4
8828,8.4,3.01,-1.33,-6.29,-1.71,1.62,4
8852,8.49,3,-1.36,-5.13,-4.09,1.5,4
8877,8.38,2.96,-1.54,-4.71,-4.39,1.13,4
8901,8.14,2.96,-1.58,-4.77,-3.11,1.62,4
8926,8.26,3.15,-1.51,-7.39,-2.57,3.82,4
8951,8.49,3.19,-1.21,-9.77,-2.75,4.49,4
8975,8.58,3.22,-0.99,-10.01,2.98,3.51,4
9000,8.7,3.26,-0.74,-7.94,4.45,2.78,4
9024,8.8,3.31,-0.73,-3.85,-0.07,1.99,4
9049,8.65,3.3,-0.85,-0.38,-0.98,2.29,4
9073,8.55,3.25,-1.11,2.79,-1.16,3.88,4
9098,8.68,3.19,-1.24,4.44,-4.7,4.91,4
9123,8.77,3.1,-1.45,4.19,-5.13,4,4
9147,8.56,2.94,-1.6,2,-3.11,0.83,4
9172,8.51,3.05,-1.72,-1.11,0.3,-1.06,4
9196,8.49,2.97,-1.81,-3.73,2.68,-1.25,4
9221,8.42,2.92,-1.79,-5.01,4.51,-0.15,4
9245,8.51,2.98,-1.67,-5.2,0.97,1.25,4
9271,8.58,2.99,-1.72,-5.44,-1.41,1.44,4
9296,8.67,2.9,-1.78,-7.27,1.89,1.56,4
9320,8.88,2.92,-1.68,-9.59,2.68,0.95,4
9345,8.93,3.03,-1.43,-11.48,0.48,-1.79,4
9369,8.88,3.13,-1.3,-11.66,5.06,-5.03,4
9394,8.6,3.24,-1.07,-10.44,6.34,-7.95,4
9418,8.55,3.24,-0.87,-8.67,8.11,-8.01,4
9443,8.48,3.31,-0.74,-4.83,3.04,-7.47,4
9468,8.33,3.39,-0.63,-1.48,0.79,-7.28,4
9492,8.17,3.42,-0.68,1.94,5.18,-7.28,4
9517,8.35,3.33,-0.67,5.48,6.46,-6.37,4
9541,8.47,3.39,-0.66,10.17,3.72,-5.09,4
9566,8.55,3.31,-0.85,14.32,2.37,-2.71,4
9591,8.71,3.27,-1.07,16.94,-1.28,0.22,4
9616,8.73,3.34,-1.18,17.24,-10.86,1.86,4
9641,8.33,3.34,-1.14,15.6,-12.63,1.32,4
9665,7.94,3.37,-1.11,15.23,-3.6,0.52,4
9690,7.73,3.5,-1.03,15.9,-1.28,1.38,4
9714,7.63,3.46,-1.17,16.27,-3.24,4.24,4
9739,7.56,3.46,-1.33,15.96,-2.2,7.72,4
9764,7.84,3.51,-1.55,15.05,-3.48,10.22,4
9788,7.88,3.52,-1.74,12.67,-10.13,10.89,4
9814,8,3.49,-1.79,9.13,-5.25,10.83,4
9838,8.16,3.42,-1.8,6.02,2.13,8.82,4
9863,8.32,3.39,-1.83,4.07,3.35,6.5,4
9887,8.65,3.42,-1.88,1.94,11.64,4.79,4
9912,9.02,3.32,-1.8,0.84,15.3,4.49,4
9937,9.27,3.13,-1.81,1.09,3.65,4.36,4
9961,9.51,3.05,-1.65,1.39,0.54,3.75,4
9986,9.49,2.97,-1.43,1.57,-2.69,-0.33,4
10010,8.87,3.02,-1.47,0.96,-4.64,-5.88,4
10035,8.49,3.07,-1.43,0.66,5.3,-8.32,4
10059,8.08,3.19,-1.39,1.69,-0.68,-6.67,4
10084,7.64,3.24,-1.35,2.98,-5.8,-3.26,4
10109,7.55,3.3,-1.49,4.44,-1.77,0.4,4
10133,7.74,3.43,-1.65,5.35,-5.92,3.39,4
10158,7.91,3.38,-1.85,4.99,-5,5.95,4
10183,8.3,3.23,-1.93,2.61,-1.89,7.96,4
10208,8.75,3.07,-2,-1.05,-3.42,9,4
10233,9.08,2.94,-2.16,-6.05,-5.49,8.51,4
10257,9.18,2.89,-1.95,-12.15,-4.88,5.34,4
10282,9.18,2.89,-1.76,-17.33,-0.98,-0.7,4
10306,8.9,2.85,-1.42,-19.65,4.57,-7.04,4
10331,8.58,2.89,-1.17,-19.04,14.14,-10.09,4
10355,8.26,2.83,-1.21,-16.72,7.25,-8.68,4
10381,8.04,2.85,-1.03,-13.98,2.68,-4.9,4
10406,8.09,2.98,-1.03,-11.41,7.56,-1.12,4
10430,8.4,2.97,-0.94,-8.12,5.97,2.23,4
10455,8.72,2.94,-0.98,-3.91,2.01,4.73,4
10479,8.86,2.96,-0.9,-0.2,-1.04,4.36,4
10504,8.9,3.02,-1,2.12,-1.41,2.17,4
10528,8.57,3.15,-1.02,4.99,-1.96,-1.12,4
10553,8.28,3.24,-1.13,7.24,-1.16,-2.53,4
10578,8.02,3.35,-1.14,9.68,0.24,-1.61,4
10603,7.99,3.37,-1.24,10.96,0,1.44,4
10628,8.27,3.39,-1.23,12.91,-1.04,4.97,4
10652,8.4,3.42,-1.19,15.6,-7.75,6.5,4
10677,8.6,3.34,-1.39,17.37,-4.09,6.5,4
10702,8.8,3.24,-1.56,18.22,-4.64,5.89,4
10726,8.68,3.14,-1.83,17.55,-11.1,4.67,4
10751,8.68,3.08,-1.98,14.38,-5.25,3.08,4
10775,8.57,3.02,-2.24,9.8,-4.58,1.56,4
10801,8.43,2.91,-2.33,5.23,-5.55,0.46,4
10825,8.39,2.85,-2.35,-0.01,-0.68,0.22,4
10850,8.37,2.82,-2.35,-5.5,2.07,0.4,4
10875,8.33,2.8,-2.26,-10.2,0.97,0.46,4
10899,8.38,2.76,-2.04,-14.04,2.56,0.64,4
10924,8.42,2.82,-1.81,-15.87,3.9,-0.51,4
10948,8.15,2.8,-1.79,-17.27,5.24,-1.61,4
10973,8.06,2.77,-1.62,-18,9.93,0.1,4
10997,8.25,2.86,-1.56,-17.39,7.13,3.69,4
11023,8.47,2.85,-1.52,-15.68,2.43,7.47,4
11048,8.72,2.89,-1.47,-14.4,4.75,8.94,4
11072,9.05,2.98,-1.55,-13.55,5.97,8.39,4
11097,9.44,3.05,-1.35,-12.51,-1.16,4.49,4
11121,9.23,3.14,-1.2,-11.23,-1.89,-0.57,4
11146,9.29,3.18,-0.98,-8.67,2.13,-3.93,4
11171,9.16,3.22,-0.69,-4.16,-9.39,-6.79,4
11196,8.48,3.28,-0.64,1.94,-14.15,-8.68,4
11221,8.16,3.32,-0.7,7.91,-3.85,-6.61,4
11245,8.16,3.41,-0.88,12.91,-8.36,-1.06,4
11270,8.34,3.42,-1.15,16.94,-17.5,4.3,4
11294,8.4,3.29,-1.28,19.19,-20.13,7.72,4
11319,8.53,3.13,-1.6,19.01,-16.1,7.96,4
11344,8.81,2.94,-1.99,16.33,-7.63,6.38,4
11369,8.87,2.85,-2.27,10.72,-12.32,2.05,4
11394,8.59,2.78,-2.48,3.65,-7.14,-3.56,4
11418,8.43,2.77,-2.42,-2.88,3.41,-7.89,4
11443,8.32,2.68,-2.27,-8.24,4.63,-9.84,4
11467,8.04,2.71,-2.22,-13.18,8.17,-8.87,4
11492,8.16,2.62,-2.05,-17.27,17.01,-4.36,4
11517,8.71,2.58,-1.67,-18.79,17.31,1.13,4
11542,9.07,2.76,-1.3,-17.27,16.4,3.08,4
11567,9.3,2.85,-1.06,-14.71,18.53,2.05,4
11591,9.45,2.76,-0.87,-11.54,20,-0.82,4
11616,9.35,2.83,-0.86,-7.33,17.01,-4.29,4
11641,8.91,2.81,-0.99,-4.22,13.29,-7.77,4
11665,8.33,2.87,-1.24,-2.33,13.78,-9.11,4
11691,7.8,2.86,-1.28,-0.68,10.48,-7.16,4
11715,7.28,3.07,-1.28,1.57,1.22,-3.75,4
11740,6.87,3.08,-1.28,4.38,2.86,1.38,4
11764,7.06,3.06,-1.57,7.06,5.97,9.97,4
11789,7.84,3.11,-1.79,7.43,-2.5,17.78,4
11814,8.56,2.87,-1.95,3.34,-8.36,20.03,4
11838,9.09,2.71,-1.92,-2.88,0.48,17.17,4
11863,9.59,2.74,-1.71,-8.43,7.92,10.52,4
11888,9.78,2.85,-1.29,-10.13,3.78,1.32,4
11913,9.01,3,-1.03,-9.71,-2.93,-6.18,4
11938,8.32,3.08,-0.95,-7.21,2.43,-8.81,4
11962,7.99,3.08,-1.02,-3.12,0.67,-6.18,4
11987,7.99,3.19,-1.24,0.29,-5.98,-0.39,4
12011,8.02,3.07,-1.27,1.33,-9.39,5.28,4
12036,8.27,2.96,-1.45,-0.13,-5.74,9.91,4
12060,9.1,2.9,-1.4,-2.88,-3.18,12.23,4
12085,9.35,2.79,-1.05,-4.52,-11.83,9.97,4
12110,9.31,2.73,-0.88,-5.62,-7.2,5.89,4
12135,9.25,2.64,-0.73,-5.2,1.89,1.07,4
12160,8.91,2.72,-0.5,-3.55,-0.31,-0.76,4
12184,8.6,2.71,-0.51,-0.93,0.12,1.8,4
12209,8.43,2.71,-0.58,2.79,-3.97,5.28,4
12233,8.32,2.77,-0.87,5.72,-10.07,7.29,4
12258,8.37,2.8,-1.24,5.11,-5.31,7.29,4
12283,8.47,2.73,-1.61,1.82,-2.69,5.89,4
12307,8.8,2.69,-1.69,-2.88,-0.92,4.55,4
12332,8.82,2.81,-1.84,-8.37,-2.14,2.72,4
12356,8.95,2.81,-1.63,-15.07,2.62,0.64,4
12382,9,2.88,-1.08,-18.18,8.41,-3.5,4
12407,8.87,3.02,-0.63,-16.72,11.22,-9.42,4
12431,8.52,3.18,-0.42,-10.68,10.54,-12.34,4
12456,8.01,3.19,-0.38,-3,5.3,-11,4
12480,7.89,3.28,-0.54,4.93,3.78,-6.37,4
12505,7.96,3.21,-0.7,12.37,-1.65,0.1,4
12529,8.19,3.05,-1.02,17.85,-12.5,6.62,4
12555,8.54,2.83,-1.41,20.23,-12.32,10.58,4
12580,9.15,2.56,-1.69,19.56,-8.17,11.8,4
12604,9.59,2.43,-1.78,17.37,-14.33,11.01,4
12629,9.64,2.35,-1.98,13.4,-13.24,8.27,4
12653,9.82,2.33,-2.12,7.3,-2.57,3.94,4
12679,9.74,2.34,-2.15,-0.13,-6.77,-2.34,4
12703,9.26,2.34,-1.99,-7.94,-6.28,-8.07,4
12728,8.8,2.41,-1.78,-15.01,5.61,-11.31,4
12753,8.53,2.59,-1.44,-18.37,5.97,-12.16,4
12777,8.37,2.74,-1.02,-18.98,5,-10.88,4
12802,8.21,2.82,-0.83,-17.15,6.03,-9.72,4
12827,7.91,2.93,-0.68,-14.04,1.7,-9.05,4
12852,7.86,3,-0.78,-10.87,7.31,-8.07,4
12877,7.86,3.03,-0.89,-8.55,11.15,-5.7,4
12901,7.82,3.04,-0.85,-5.56,7.56,-2.47,4
12926,7.96,3.17,-0.85,-1.23,6.09,0.83,4
12950,8.18,3.21,-0.78,2.73,3.96,3.33,4
12975,8.38,3.19,-0.98,6.39,1.7,4.85,4
12999,8.66,3.18,-1.19,7.98,1.34,5.89,4
13024,9.14,3.01,-1.16,9.19,-1.28,5.64,4
13049,9.44,2.91,-1.08,10.29,-3.24,3.75,4
13074,9.52,2.77,-1.09,10.41,-2.26,1.25,4
13099,9.51,2.63,-1.01,10.29,-6.04,-1.92,4
13123,9.27,2.66,-1.05,9.44,-5.37,-4.78,4
13148,8.98,2.81,-1.09,7.91,-1.22,-7.83,4
13172,8.77,3.04,-1.22,6.39,1.52,-10.03,4
13197,8.41,3.16,-1.39,4.26,6.15,-10.03,4
13222,8.34,3.21,-1.38,2.18,6.03,-7.89,4
13246,8.25,3.26,-1.45,0.05,4.57,-6.12,4
13271,8.29,3.29,-1.58,-2.27,6.22,-5.94,4
13296,8.26,3.28,-1.51,-4.34,9.26,-6.37,4
13321,8.38,3.22,-1.4,-5.74,11.09,-6.49,4
13346,8.54,3.26,-1.18,-5.26,9.87,-6.31,4
13370,8.55,3.17,-0.96,-3,2.8,-6.06,4
13395,8.38,3.25,-0.8,0.17,-0.74,-6.92,4
13419,8.06,3.19,-0.81,3.89,0.06,-7.28,4
13444,7.94,3.15,-1,6.45,-0.8,-5.88,4
13468,7.96,3.16,-1.15,7.98,-4.76,-2.59,4
13493,7.89,3.18,-1.23,7.85,-8.85,0.71,4
13518,7.84,3.13,-1.25,6.63,-3.91,3.08,4
13543,8.13,3.06,-1.16,5.35,-2.26,6.38,4
13568,8.42,3.03,-1.2,4.38,-5.86,9.67,4
13592,8.64,2.91,-1.09,2.37,-5.92,10.77,4
13617,8.7,2.92,-1.08,-0.56,-6.16,8.75,4
13641,8.69,2.87,-1.11,-3.73,-2.44,5.28,4
13666,8.56,2.85,-1.11,-6.96,2.25,2.35,4
13691,8.45,2.98,-1.01,-9.22,3.47,1.01,4
13715,8.59,3.12,-0.78,-9.46,2.19,0.89,4
13740,8.55,3.19,-0.68,-7.82,1.4,-0.09,4
13764,8.6,3.06,-0.64,-3.79,3.65,-1.98,4
13789,8.47,3.06,-0.87,1.15,-0.8,-3.01,4
13815,8.36,2.94,-1.32,4.56,-7.99,-1.79,4
13839,8.14,3.02,-1.59,3.71,-6.53,1.44,4
13864,8.45,3.02,-1.63,0.78,-3.18,4.06,4
13888,8.48,3.17,-1.3,-0.26,-4.7,4.36,4
13913,8.67,3.32,-0.96,1.69,0.85,5.16,4
13937,8.79,3.39,-0.7,7.85,-7.26,4.79,4
13962,8.47,3.49,-0.81,14.01,-22.2,4.91,4
13987,8.32,3.5,-0.97,16.88,-14.58,5.03,4
14011,8.22,3.47,-1.32,17.12,-9.09,4.3,4
14037,8.19,3.47,-1.55,15.17,-10.74,6.19,4
14061,8.3,3.41,-1.67,12.06,-4.76,8.69,4
14086,8.59,3.15,-1.68,10.17,-0.98,9.61,4
14110,8.9,3.01,-1.89,8.28,3.53,9.36,4
14135,9.16,2.84,-2.07,6.33,5.06,7.29,4
14160,9.43,2.71,-2.35,3.46,4.39,4.36,4
14184,9.5,2.71,-2.47,-0.5,3.47,1.8,4
14209,9.45,2.69,-2.43,-4.59,6.03,-1.06,4
14233,9.53,2.67,-2.38,-8.61,8.23,-3.2,4
14259,9.65,2.74,-1.91,-10.32,1.15,-5.27,4
14283,9.1,2.79,-1.52,-9.71,-6.28,-9.48,4
14308,8.61,2.86,-1.4,-8.06,-0.92,-13.2,4
14333,8.35,2.91,-1.37,-5.07,-2.44,-13.56,4
14357,8.02,2.84,-1.43,-3,-9.88,-12.16,4
14382,7.89,2.83,-1.49,-2.82,-6.59,-9.66,4
14406,8,2.92,-1.54,-4.28,-3.91,-6.86,4
14431,8.27,2.74,-1.43,-6.6,-4.64,-4.36,4
14457,8.68,2.7,-1.15,-8.61,0.42,-4.97,4
14481,8.8,2.72,-0.77,-7.63,2.74,-10.39,4
14506,8.63,2.78,-0.51,-5.07,7.86,-18.01,4
14530,8.38,2.8,-0.63,-1.35,22.86,-26.12,4
14555,7.94,2.89,-0.82,1.94,28.59,-31.49,4
14579,7.47,3.13,-1.18,3.46,23.23,-31.12,4
14604,6.82,3.47,-1.51,2.85,20.06,-24.17,4
14630,6.7,3.69,-1.53,0.84,18.23,-10.88,4
14654,6.96,3.76,-1.31,1.21,13.23,4.61,4
14679,7.56,3.87,-1.17,3.34,1.15,19.06,4
14703,8.41,3.8,-1.18,5.9,-3.18,28.21,4
14728,9.34,3.8,-1.18,7.79,-7.02,30.16,4
14752,9.86,3.76,-1.02,9.62,-22.75,25.22,4
14778,9.55,3.74,-1.12,10.29,-23.42,15.16,4
14803,9.27,3.69,-1.45,8.59,-1.96,3.02,4
14827,8.83,3.6,-1.61,6.45,7.01,-6.55,4
14852,8.25,3.71,-1.72,4.32,1.95,-9.11,4
14876,7.76,3.77,-1.69,2.98,5.79,-6.06,4
14901,7.86,3.64,-1.42,3.77,7.25,-1.55,4
14926,8.16,3.56,-1.43,6.27,0.79,1.68,4
14950,8.53,3.51,-1.45,8.71,-1.35,3.45,4
14976,8.72,3.41,-1.68,9.26,-1.1,3.51,4
15000,8.81,3.24,-1.71,8.65,-5.13,2.17,4
15025,8.73,3.11,-1.8,7.55,-6.83,1.19,4
15049,8.67,3.08,-2.02,4.93,-6.41,0.71,4
15074,8.47,2.99,-2.11,0.66,-5.68,0.58,4
15099,8.52,2.85,-2.13,-4.59,-4.64,0.64,4
15123,8.57,2.81,-2.01,-9.95,-7.57,0.58,4
15148,8.34,2.81,-1.72,-15.13,-7.5,0.03,4
15172,8.26,2.82,-1.64,-19.52,4.87,-2.28,4
15197,8.41,2.91,-1.17,-22.02,9.02,-3.56,4
15223,8.27,3.07,-0.92,-21.6,3.96,-3.5,4
15247,8.02,3.08,-0.66,-19.1,5.91,-1.43,4
15272,8.02,3.2,-0.5,-15.5,6.03,2.41,4
15296,8.27,3.25,-0.48,-11.41,2.68,5.16,4
15321,8.22,3.27,-0.48,-7.15,0.91,5.52,4
15345,8.13,3.33,-0.51,-3,2.5,5.28,4
15370,8.19,3.35,-0.78,0.78,4.2,5.28,4
15395,8.36,3.28,-0.88,2.98,1.46,6.44,4
15419,8.35,3.21,-0.94,4.93,-3.24,6.99,4
15445,8.29,3.19,-1.15,6.27,-1.47,6.8,4
15469,8.38,3.21,-1.21,7.37,0.61,6.25,4
15494,8.39,3.15,-1.38,7.55,2.8,6.74,4
15518,8.59,3.02,-1.53,7.73,3.78,8.27,4
15543,8.76,3,-1.53,7.24,0.06,10.71,4
15568,9,2.99,-1.46,7.18,0.73,11.8,4
15592,9.08,2.94,-1.64,7,-0.55,12.17,4
15617,9.14,3.01,-1.61,6.76,-5,12.11,4
15641,9.19,2.94,-1.66,5.11,-3.42,10.22,4
15667,9.24,2.91,-1.62,2.37,1.22,4.67,4
15691,8.81,3,-1.52,-0.38,2.56,-3.26,4
15716,8.36,3.13,-1.2,-1.41,14.32,-8.62,4
15741,8.1,3.22,-1.01,0.66,13.59,-8.32,4
15765,8.01,3.23,-0.84,4.07,8.65,-3.87,4
15790,8.06,3.18,-0.71,8.83,6.52,1.19,4
15814,8.45,3.17,-0.61,13.46,0.85,3.75,4
15839,8.58,3.01,-0.83,18.22,-0.19,3.88,4
15864,8.68,2.94,-1.05,20.66,-1.96,3.33,4
15889,8.6,2.87,-1.33,20.35,-4.82,3.14,4
15914,8.66,2.8,-1.61,18.52,-3.05,3.75,4
15938,8.66,2.72,-1.74,15.96,-4.7,4.36,4
15963,8.75,2.84,-1.84,12.61,-4.21,4.73,4
15987,8.97,2.76,-1.9,8.34,-3.91,4.3,4
16012,9.01,2.71,-2.04,2.91,-4.46,2.96,4
16037,8.93,2.64,-2.08,-3.37,1.09,0.71,4
16061,9.02,2.64,-1.84,-8.55,3.35,-1.73,4
16086,9.03,2.58,-1.65,-12.27,4.69,-3.75,4
16111,8.87,2.62,-1.43,-13.73,7.13,-5.88,4
16136,8.73,2.64,-1.38,-13.91,6.09,-7.04,4
16160,8.74,2.72,-1.07,-13.18,7.62,-5.64,4
16185,8.8,2.78,-0.9,-11.17,3.17,-4.17,4
16210,8.9,2.8,-0.82,-8.24,1.34,-3.44,4
16234,8.97,2.77,-0.62,-4.95,0.67,-3.81,4
16259,8.81,2.8,-0.65,-1.6,-4.64,-4.72,4
16283,8.56,2.93,-0.65,1.27,-2.44,-5.45,4
16309,8.4,3.06,-0.48,3.89,0.79,-5.03,4
16334,8.23,3.22,-0.57,7.49,-4.03,-3.93,4
16358,8.03,3.21,-0.66,9.99,-4.46,-2.22,4
16383,7.94,3.26,-0.98,12.12,-1.16,0.28,4
16407,7.96,3.24,-1.06,13.46,-4.7,2.6,4
16432,8.3,3.17,-1.38,13.1,-3.24,3.88,4
16456,8.42,3.12,-1.49,11.63,-0.68,3.69,4
16481,8.74,2.97,-1.73,9.32,-0.37,3.02,4
16506,8.83,2.87,-1.76,6.94,-0.92,1.44,4
16531,9,2.81,-1.84,4.5,0.42,-0.64,4
16556,8.83,2.75,-1.97,2.12,-0.61,-2.59,4
16580,8.75,2.62,-1.99,-0.38,-0.43,-3.01,4
16605,8.58,2.68,-1.97,-2.76,-0.07,-2.83,4
16629,8.58,2.61,-2.05,-5.13,-1.59,-3.26,4
16654,8.36,2.65,-2,-8.55,-0.61,-4.29,4
16679,8.32,2.66,-1.95,-11.9,5.12,-4.84,4
16703,8.32,2.72,-1.62,-13.79,7.25,-3.32,4
16728,8.42,2.7,-1.42,-13.73,4.45,-0.64,4
16753,8.51,2.83,-1.03,-12.21,4.08,1.8,4
16778,8.71,3,-0.67,-8.24,1.7,3.51,4
16803,8.79,3.05,-0.68,-3.43,-3.11,3.63,4
16827,8.59,3.07,-0.65,1.63,-3.97,2.78,4
16852,8.52,3.2,-0.88,5.6,-4.76,3.02,4
16876,8.38,3.19,-1.23,7.24,-8.42,3.82,4
16901,8.26,3.27,-1.41,6.45,-4.21,4.73,4
16925,8.44,3.3,-1.42,4.32,-0.49,4.79,4
16950,8.79,3.4,-1.39,2.49,-2.63,4.24,4
16975,8.89,3.25,-1.46,0.96,0.91,2.23,4
16999,9.08,3.24,-1.21,0.35,4.69,0.16,4
17025,9.24,3.08,-1.23,1.21,-0.55,-1.67,4
17049,9.08,3,-1.35,1.94,-4.03,-4.29,4
17074,8.66,2.8,-1.62,1.02,-1.89,-6.73,4
17098,8.4,2.74,-1.59,-0.38,2.07,-7.04,4
17123,8.25,2.72,-1.6,-2.15,-0.68,-5.88,4
17148,8.21,2.71,-1.63,-4.89,-2.81,-5.15,4
17172,8.11,2.84,-1.6,-7.94,2.68,-4.23,4
17197,8.12,2.88,-1.57,-9.95,4.2,-2.22,4
17221,8.36,2.89,-1.25,-10.13,4.45,0.22,4
17246,8.58,2.91,-0.94,-7.45,2.68,1.5,4
17271,8.49,2.95,-0.69,-2.63,-1.89,0.71,4
17296,8.35,2.99,-0.88,2.67,-1.04,0.52,4
17321,8.21,2.92,-0.99,7.55,-3.85,2.11,4
17345,8.18,2.92,-1.34,10.11,-6.89,5.58,4
17370,8.25,2.86,-1.57,10.35,-9.58,7.9,4
17394,8.45,2.8,-1.79,7.37,-6.16,8.82,4
17419,8.68,2.75,-1.92,2.61,-0.92,9.06,4
17444,9.06,2.74,-1.63,-1.66,-4.64,7.78,4
17468,9.1,2.79,-1.47,-3.91,-4.82,3.69,4
17493,8.9,2.93,-1.45,-6.66,3.29,-0.57,4
17517,8.66,3.02,-1.29,-8.98,6.28,-2.4,4
17543,8.64,3.19,-1.04,-9.28,5.85,-2.83,4
17567,8.66,3.31,-0.82,-7.33,7.68,-1.06,4
17592,8.73,3.33,-0.71,-3.06,4.57,0.16,4
17617,8.77,3.4,-0.66,2.79,1.89,-0.51,4
17641,8.85,3.32,-0.64,8.95,0.54,-1.73,4
17666,8.68,3.21,-1.05,13.34,-4.52,-2.59,4
17690,8.42,3.13,-1.43,14.38,-5.61,-2.4,4
17715,8.46,3.02,-1.7,13.16,-5.43,-2.04,4
17739,8.53,2.88,-1.87,10.72,-3.24,-1.98,4
17765,8.53,2.7,-1.8,7.55,-1.47,-2.22,4
17790,8.38,2.81,-1.97,4.38,-0.8,-1.86,4
17814,8.43,2.82,-1.86,0.29,0.91,-0.76,4
17839,8.38,2.76,-1.65,-3.18,2.98,0.64,4
17863,8.42,2.77,-1.43,-4.34,4.63,2.05,4
17888,8.54,2.77,-1.24,-3.49,2.31,2.23,4
17913,8.59,2.71,-1.32,-3.12,0.91,1.99,4
17937,8.64,2.68,-1.38,-3,3.9,1.8,4
17962,8.66,2.73,-1.53,-3.49,1.58,1.25,4
17986,8.86,2.8,-1.67,-5.44,2.37,0.89,4
18011,8.98,2.87,-1.4,-6.23,3.04,-0.45,4
18036,8.84,2.96,-1.22,-5.74,1.22,-2.16,4
18061,8.84,3.06,-0.91,-2.7,3.11,-2.16,4
18086,8.68,3.12,-0.85,1.88,-2.38,-1.79,4
18110,8.27,3.15,-1.02,6.27,-7.69,-1.73,4
18135,8.04,3.22,-1.24,8.77,-2.93,-0.7,4
18159,8.06,3.15,-1.48,10.11,-3.42,2.53,4
18184,8.14,3.09,-1.84,9.5,-6.35,5.77,4
18208,8.39,2.98,-1.96,6.27,-3.97,6.86,4
18233,8.75,2.89,-2.05,1.63,1.7,6.01,4
18258,8.98,2.84,-1.95,-2.76,0,4.3,4
18283,9.1,2.74,-1.74,-7.09,3.47,1.44,4
18308,9.1,2.69,-1.61,-9.34,10.67,-1.98,4
18332,9.15,2.69,-1.37,-10.44,6.76,-4.11,4
18357,8.88,2.69,-1.25,-10.81,6.4,-5.09,4
18382,8.68,2.65,-1.07,-9.83,7.13,-6.18,4
18406,8.46,2.8,-0.87,-7.21,4.32,-7.04,4
18431,8.18,2.81,-0.89,-3.85,3.9,-7.22,4
18455,7.84,2.83,-1.13,-1.6,4.08,-5.45,4
18480,7.78,2.91,-1.01,0.41,1.09,-3.07,4
18505,7.88,3.01,-1.03,3.22,0.73,-1.61,4
18530,8.2,3.04,-1.08,5.72,2.01,0.16,4
18555,8.19,3.06,-1.09,8.34,1.34,1.8,4
18579,8.43,3.27,-1.18,9.62,-0.13,5.71,4
18604,8.82,3.3,-1.18,11.33,-3.97,8.02,4
18628,8.99,3.43,-1.37,12.49,-2.44,7.29,4
18653,8.79,3.34,-1.57,12.37,-9.64,5.77,4
18677,8.65,3.25,-1.78,9.87,-4.03,4.55,4
18702,8.92,3.36,-1.85,6.69,6.15,4.12,4
18727,8.91,3.33,-1.65,5.48,-3.54,2.29,4
18752,8.84,3.31,-1.8,3.59,-1.1,-0.33,4
18777,8.77,3.22,-1.91,0.35,8.96,-1.73,4
18801,8.9,3.09,-1.58,-1.9,1.7,-1.55,4
18826,8.88,3.02,-1.29,-0.99,0.67,-2.28,4
18851,8.89,3,-1.2,2.12,1.22,-4.29,4
18875,8.87,2.84,-1.23,4.32,-3.97,-5.64,4
18900,8.75,2.84,-1.3,3.65,-0.43,-7.53,4
18924,8.57,2.79,-1.45,1.76,-2.02,-8.87,4
18949,8.51,2.8,-1.25,0.23,-2.93,-9.78,4
18973,8.35,2.74,-1.04,0.17,1.4,-9.84,4
18998,8.34,2.81,-1,1.76,0.61,-8.5,4
19023,8.27,2.93,-1.08,3.28,-2.44,-5.15,4
19048,8.39,2.89,-1.22,3.83,-0.92,-1.37,4
19073,8.62,2.91,-1.28,4.01,-3.3,0.64,4
19097,8.52,2.89,-1.43,2.67,-6.83,0.77,4
19122,8.7,2.89,-1.4,0.72,0.73,-0.33,4
19146,8.62,2.94,-1.34,-0.13,1.52,-2.59,4
19171,8.51,3.08,-1.4,-1.48,1.82,-3.62,4
19196,8.35,3.12,-1.29,-0.93,4.63,-4.23,4
19220,8.32,3.11,-1.28,0.96,1.28,-3.07,4
19245,8.21,3.18,-1.42,1.57,-1.83,-0.94,4
19269,8.41,3.2,-1.45,0.54,-0.19,0.83,4
19294,8.73,3.24,-1.45,-0.93,1.64,0.34,4
19320,8.84,3.22,-1.38,-1.54,2.43,-1.31,4
19344,8.84,3.26,-1.29,-1.66,0.54,-2.4,4
19369,8.65,3.35,-1.25,-0.62,0.3,-5.27,4
19393,8.43,3.38,-1.26,0.9,3.35,-6.31,4
19418,8.23,3.35,-1.35,2.73,1.34,-5.33,4
19442,8.26,3.34,-1.37,4.01,-4.03,-3.68,4
19467,8.22,3.4,-1.44,4.01,-4.76,-3.32,4
19492,8.36,3.35,-1.46,3.83,1.52,-3.99,4
19516,8.6,3.32,-1.38,4.26,2.5,-5.45,4
19541,8.59,3.27,-1.22,5.66,-3.6,-6.79,4
19565,8.56,3.23,-1.14,8.16,-2.93,-8.26,4
19591,8.16,3.14,-1.3,10.48,-3.85,-8.62,4
19615,7.87,3.11,-1.5,11.51,-4.46,-7.04,4
19640,7.81,3.13,-1.77,10.23,-2.38,-3.68,4
19665,7.74,3.16,-1.89,7.91,-4.15,-0.27,4
19689,7.85,3.02,-2.15,4.32,-1.83,1.99,4
19714,8.01,3.13,-2.04,0.17,1.28,3.39,4
19738,8.09,3.2,-2.06,-4.46,1.95,4.12,4
19763,8.24,3.22,-1.95,-8.43,4.93,4.73,4
19787,8.48,3.31,-1.62,-10.07,6.09,4.85,4
19813,8.6,3.44,-1.31,-9.71,5.18,4.36,4
19838,8.67,3.58,-1.14,-7.94,4.93,2.9,4
19862,8.59,3.66,-1.12,-4.83,4.93,0.89,4
19887,8.5,3.63,-1.15,-0.87,2.56,-0.7,4
19911,8.49,3.57,-1.38,2.61,2.62,-0.39,4
19936,8.22,3.47,-1.64,4.38,-4.58,0.77,4
19961,8.41,3.45,-2.1,4.8,-1.89,2.6,4
19985,8.76,3.48,-2.28,3.83,-2.99,3.27,4
20010,8.78,3.35,-2.18,1.45,-10.61,1.01,4
20034,8.64,3.28,-2.15,-1.11,-4.33,-2.89,4
20060,8.35,3.34,-1.95,-2.76,-2.02,-5.39,4
20084,8.23,3.22,-1.84,-3.06,-4.7,-4.66,4
20109,8.02,3.21,-1.64,-1.9,-6.22,-2.53,4
20134,8,3.27,-1.58,-0.62,-7.63,0.52,4
20158,8.09,3.17,-1.48,0.17,-7.44,4.18,4
20183,8.41,3.11,-1.71,-0.07,-7.63,7.9,4
20207,8.67,3.16,-1.85,-1.29,-10.13,10.4,4
20232,8.94,3.11,-1.94,-3.73,-13.6,11.01,4
20258,8.93,3.1,-1.9,-8,-12.75,8.02,4
20282,9.04,3.24,-1.76,-12.82,-1.77,2.17,4
20307,8.99,3.33,-1.58,-16.84,5.61,-4.72,4
20331,8.67,3.43,-1.35,-17.45,5.85,-8.99,4
20356,8.28,3.61,-1.12,-15.2,8.53,-9.66,4
20380,8.13,3.66,-0.92,-11.35,6.58,-8.26,4
20405,7.99,3.74,-0.83,-6.54,3.47,-6.92,4
20430,8.01,3.7,-0.8,-1.35,1.52,-5.03,4
20455,8.07,3.74,-1.04,2.91,2.8,-3.87,4
20480,8.13,3.62,-1.11,6.82,-0.19,-2.22,4
20504,8.32,3.59,-1.33,9.93,-2.08,-1.18,4
20529,8.42,3.42,-1.64,11.76,-3.36,-1.25,4
20553,8.35,3.37,-1.8,12.43,-5.07,-1.55,4
20578,8.39,3.25,-2.07,12.12,-3.78,-1.55,4
20603,8.43,3.16,-2.14,10.17,-6.53,-0.82,4
20627,8.27,3.07,-2.23,7,-8.42,-0.7,4
20653,8.11,3.13,-2.21,3.52,-5.13,-0.76,4
20677,8.06,3.13,-2.1,0.17,-2.57,0.16,4
20702,8.05,3.18,-2.12,-3.31,-2.87,1.5,4
20727,8.04,3.18,-2,-6.72,-0.86,2.35,4
20751,8.09,3.28,-1.84,-9.28,1.76,2.05,4
20776,8.15,3.3,-1.53,-10.56,3.17,2.17,4
20800,8.11,3.37,-1.47,-10.5,3.41,2.78,4
20825,8.11,3.48,-1.33,-9.65,3.11,3.75,4
20849,8.33,3.63,-1.18,-7.82,7.56,4.3,4
20874,8.42,3.71,-1.04,-4.59,5.48,4.55,4
20900,8.5,3.75,-1.05,-0.87,3.11,4.36,4
20924,8.54,3.77,-1.14,2.85,3.53,3.02,4
20949,8.61,3.72,-1.18,6.33,2.62,1.86,4
20973,8.46,3.65,-1.41,9.32,1.03,0.89,4
20998,8.36,3.63,-1.64,11.09,0,0.46,4
21022,8.43,3.65,-1.87,11.33,-1.41,0.89,4
21047,8.45,3.55,-2.03,10.66,-4.46,1.19,4
21072,8.49,3.42,-2.13,8.89,-2.26,0.52,4
21096,8.56,3.25,-2.29,6.51,-1.16,-0.88,4
21121,8.71,3.2,-2.42,3.59,-1.35,-1.73,4
21146,8.55,3.25,-2.34,0.66,-4.58,-2.65,4
21171,8.31,3.18,-2.18,-2.21,-2.5,-4.05,4
21195,8.21,3.2,-2.08,-4.59,2.13,-4.84,4
21220,8.09,3.2,-1.96,-6.05,0.18,-4.29,4
21245,8.02,3.22,-1.85,-6.66,-0.37,-2.59,4
21269,7.87,3.23,-1.65,-6.54,0.36,-0.76,4
21294,8.13,3.32,-1.8,-6.72,1.28,1.56,4
21318,8.23,3.28,-1.74,-7.15,0.24,3.33,4
21343,8.28,3.28,-1.6,-7.7,1.03,2.96,4
21368,8.36,3.39,-1.53,-7.57,3.29,1.99,4
21393,8.38,3.48,-1.35,-6.72,2.74,2.11,4
21418,8.35,3.6,-1.33,-5.01,1.34,2.66,4
21442,8.46,3.62,-1.15,-2.09,1.09,2.9,4
21467,8.55,3.69,-1.22,1.33,-0.49,2.29,4
21491,8.48,3.68,-1.32,4.38,-1.71,0.71,4
21516,8.4,3.63,-1.49,7.3,-0.31,0.1,4
21541,8.45,3.65,-1.63,9.26,-3.97,0.71,4
21565,8.44,3.57,-1.95,9.5,-5.31,0.71,4
21590,8.41,3.49,-2.22,8.22,-3.91,0.22,4
21614,8.53,3.34,-2.25,5.35,-2.81,-0.76,4
21639,8.54,3.31,-2.23,2.49,-3.36,-2.28,4
21664,8.42,3.21,-2.25,-0.32,-3.05,-2.89,4
21689,8.23,3.16,-2.17,-2.57,-2.63,-3.32,4
21714,8,3.16,-2.23,-4.83,-2.81,-2.95,4
21738,7.97,3.16,-2.15,-7.27,-1.28,-2.04,4
21763,7.93,3.16,-2.01,-8.73,-1.89,-0.33,4
21787,7.93,3.19,-1.9,-9.77,-0.25,1.13,4
21812,8.02,3.22,-1.84,-10.2,0.3,3.75,4
21837,8.21,3.21,-1.75,-10.93,-0.8,5.77,4
21861,8.44,3.29,-1.66,-11.96,1.03,6.68,4
21886,8.72,3.26,-1.49,-12.09,-0.25,5.52,4
21911,8.8,3.38,-1.34,-11.11,1.4,2.84,4
21936,8.66,3.47,-1.09,-9.65,2.68,0.95,4
21960,8.6,3.6,-0.99,-6.84,2.19,-0.88,4
21985,8.33,3.68,-0.82,-3.31,2.19,-1.67,4
22010,8.19,3.74,-0.73,1.69,5,-0.88,4
22034,8.03,3.79,-0.89,7.85,1.22,0.52,4
22059,8.04,3.75,-1.15,12.98,-2.2,2.05,4
22083,8.12,3.76,-1.43,16.76,-2.5,3.63,4
22108,8.1,3.66,-1.91,17.3,-5.13,4.61,4
22133,8.44,3.5,-2.26,15.54,-3.97,4.85,4
22158,8.7,3.35,-2.41,12.91,-7.63,4.12,4
22183,8.81,3.19,-2.65,8.95,-7.57,2.17,4
22207,8.86,3.12,-2.73,3.89,-1.83,-1.31,4
22232,8.9,3.1,-2.73,-1.9,-2.44,-3.56,4
22256,8.78,3.11,-2.58,-6.78,-2.99,-5.57,4
22281,8.66,3.09,-2.44,-10.68,1.76,-7.34,4
22306,8.45,3.08,-2.09,-12.94,-0.43,-8.01,4
22331,8.32,3.22,-1.86,-13.61,0.18,-7.65,4
22356,8.19,3.32,-1.54,-12.94,1.4,-6.92,4
22380,7.95,3.3,-1.2,-11.17,0.48,-5.94,4
22405,7.94,3.36,-1.16,-8.55,1.89,-3.75,4
22429,7.96,3.41,-1.15,-5.32,0.73,-1.49,4
22454,7.83,3.4,-1.25,-2.51,-0.92,1.13,4
22479,7.91,3.4,-1.33,-0.56,1.34,3.39,4
22503,8.11,3.42,-1.48,0.11,-1.77,5.16,4
22528,8.17,3.46,-1.57,0.23,-0.68,5.46,4
22553,8.25,3.46,-1.58,0.29,5.97,3.94,4
22578,8.49,3.48,-1.53,1.33,6.64,2.84,4
22602,8.53,3.54,-1.7,2.37,1.28,2.35,4
22627,8.49,3.55,-1.67,3.16,0.97,2.53,4
22652,8.48,3.6,-1.84,3.52,0.3,1.56,4
22676,8.52,3.62,-1.82,3.52,2.5,-0.64,4
22701,8.43,3.56,-1.86,4.56,3.72,-2.53,4
22725,8.38,3.62,-1.76,6.27,0.54,-2.71,4
22750,8.32,3.58,-1.85,7.67,-3.36,-1,4
22775,8.36,3.43,-1.97,8.59,-5.86,-0.27,4
22799,8.38,3.37,-2.28,7.85,-3.48,-0.76,4
22825,8.35,3.29,-2.34,6.02,-5.43,-1.73,4
22849,8.33,3.24,-2.35,3.34,-5.07,-1.92,4
22874,8.26,3.21,-2.27,0.84,-2.87,-1.37,4
22898,8.2,3.13,-2.13,-1.11,-4.09,-0.82,4
22923,8.2,3.14,-2.01,-2.94,-1.96,-0.7,4
22948,8.2,3.17,-1.88,-4.22,-0.49,-0.21,4
22972,8.2,3.17,-1.92,-5.38,-1.83,0.58,4
22997,8.1,3.19,-1.75,-6.9,-0.43,1.13,4
23021,8.19,3.4,-1.59,-8.43,3.47,1.93,4
23046,8.02,3.37,-1.39,-8.49,4.75,2.53,4
23070,8.08,3.5,-1.3,-7.21,6.22,3.94,4
23096,8.19,3.61,-1.18,-4.46,4.69,4.85,4
23121,8.27,3.64,-1.16,-1.35,3.59,5.28,4
23145,8.32,3.69,-1.17,1.94,4.69,5.52,4
23170,8.37,3.64,-1.39,5.05,2.92,5.03,4
23194,8.61,3.66,-1.62,6.76,1.58,4.3,4
23219,8.53,3.64,-1.85,6.63,-0.61,2.78,4
23243,8.58,3.62,-2.07,5.54,2.56,1.5,4
23268,8.76,3.57,-1.99,5.11,3.35,1.01,4
23293,8.97,3.48,-1.97,4.93,-2.2,-0.15,4
23317,8.93,3.41,-2.08,4.19,-3.85,-2.1,4
23342,8.83,3.3,-1.99,2.37,-3.05,-4.97,4
23366,8.72,3.36,-2.15,0.11,-1.71,-7.34,4
23392,8.48,3.33,-2.04,-2.82,0.48,-9.17,4
23417,8.22,3.35,-1.87,-4.95,2.25,-8.87,4
23441,8.15,3.45,-1.63,-5.62,1.34,-8.14,4
23466,8.06,3.52,-1.37,-4.77,3.29,-6.43,4
23490,8.05,3.43,-1.29,-3.06,3.11,-4.84,4
23515,7.98,3.44,-1.19,-0.74,1.09,-3.5,4
23539,7.89,3.55,-1.2,1.21,2.13,-2.77,4
23564,7.93,3.56,-1.34,2.49,3.17,-1.49,4
23589,7.89,3.58,-1.42,3.1,2.43,-1.06,4
23613,7.84,3.56,-1.47,4.19,5.24,-0.27,4
23639,8.01,3.55,-1.67,5.17,6.76,2.17,4
23663,8.09,3.55,-1.61,6.51,0.67,4.24,4
23688,8.29,3.41,-1.82,6.63,-0.25,4.61,4
23712,8.39,3.49,-2.1,5.29,2.13,3.94,4
23737,8.44,3.44,-2.18,3.52,3.17,3.08,4
23762,8.47,3.44,-2.13,1.69,2.19,2.47,4
23786,8.61,3.44,-2.17,0.66,-0.25,1.5,4
23811,8.57,3.5,-2.14,0.17,0.12,-0.03,4
23835,8.34,3.44,-2.1,-0.74,-0.37,-0.7,4
23860,8.35,3.49,-2.12,-1.9,-1.04,-0.51,4
23885,8.38,3.46,-2.04,-2.76,-2.75,-0.39,4
23909,8.38,3.46,-1.91,-3.49,-2.2,-0.82,4
23935,8.27,3.4,-1.88,-3.98,-2.2,-1.31,4
23959,8.28,3.38,-1.8,-4.77,-2.32,-1.18,4
23984,8.21,3.46,-1.72,-5.01,-1.41,-0.64,4
24008,8.15,3.4,-1.57,-4.28,-1.53,-0.64,4
24033,8.18,3.4,-1.55,-2.51,-1.65,0.46,4
24058,8.27,3.47,-1.63,-1.35,-3.85,2.78,4
24082,8.31,3.42,-1.71,-2.02,-6.35,3.75,4
24107,8.41,3.4,-1.7,-3.31,-2.08,2.41,4
24131,8.5,3.44,-1.66,-4.59,0,0.89,4
24156,8.45,3.47,-1.42,-5.32,-0.07,0.03,4
24181,8.46,3.56,-1.3,-5.01,2.19,0.46,4
24206,8.4,3.62,-1.2,-2.7,0.85,0.22,4
24231,8.49,3.61,-1.25,-0.62,-0.61,-0.09,4
24255,8.38,3.69,-1.31,0.78,0.85,-0.15,4
24280,8.46,3.71,-1.4,0.72,0.97,0.1,4
24304,8.53,3.68,-1.33,0.72,1.76,-1.31,4
24329,8.66,3.72,-1.14,1.63,4.69,-3.81,4
24354,8.56,3.73,-1.18,3.46,5.06,-6.12,4
24378,8.21,3.66,-1.27,5.54,3.9,-7.4,4
24403,8.07,3.65,-1.5,7.06,2.68,-6.25,4
24427,7.92,3.62,-1.62,6.94,1.7,-3.87,4
24452,8.05,3.56,-1.67,6.02,3.9,-2.28,4
24477,8.31,3.47,-1.75,5.6,2.25,-2.04,4
24502,8.33,3.43,-1.72,4.93,1.4,-4.17,4
24527,8.32,3.4,-1.79,4.26,3.47,-5.03,4
24551,8.2,3.43,-1.77,3.83,0.3,-4.29,4
24576,8.06,3.5,-1.78,3.16,0.06,-3.2,4
24600,8,3.52,-1.81,1.88,3.11,-1.18,4
24625,7.88,3.63,-1.7,1.27,1.64,1.25,4
24649,7.92,3.57,-1.69,1.69,2.13,3.45,4
24674,8.04,3.65,-1.72,2.91,0.61,5.77,4
24699,7.91,3.58,-1.77,4.19,-4.21,7.23,4
24723,7.88,3.57,-1.97,3.52,-2.44,8.14,4
24749,8.12,3.65,-1.69,3.83,0.73,7.66,4
24773,8.39,3.66,-1.56,5.6,-0.74,5.28,4
24798,8.38,3.71,-1.66,6.94,-3.18,2.35,4
24823,8.33,3.74,-1.67,8.22,0.85,-0.39,4
24847,8.27,3.68,-1.89,9.32,-1.04,-0.03,4
24872,8.09,3.62,-1.96,8.89,-5.98,2.72,4
24896,8.21,3.46,-1.97,8.46,-5.98,4.36,4
24921,8.33,3.35,-2.01,7.18,-4.21,4.55,4
24945,8.45,3.31,-2.14,4.19,-1.77,4.49,4
24970,8.48,3.12,-2.12,0.78,-2.26,3.21,4
24995,8.41,3.12,-2.05,-1.9,0.24,0.89,4
25019,8.4,3.13,-1.91,-4.1,4.75,0.64,4
25045,8.18,3.16,-1.83,-5.68,4.75,1.8,4
25069,8.37,3.17,-1.72,-5.87,4.87,2.78,4
25094,8.4,3.27,-1.62,-5.93,3.78,2.66,4
25118,8.45,3.33,-1.52,-5.44,6.95,2.05,4
25143,8.51,3.4,-1.41,-4.1,8.41,2.17,4
25168,8.7,3.47,-1.34,-1.35,5.48,1.19,4
25192,8.6,3.59,-1.3,1.94,0.91,-0.09,4
25217,8.41,3.54,-1.24,4.87,-0.19,-1.55,4
25241,8.29,3.55,-1.39,7.61,-0.98,-1.55,4
25266,8.28,3.44,-1.54,9.62,-4.58,-1.06,4
25290,8.16,3.35,-1.63,11.69,-5.49,-0.7,4
25316,8.14,3.3,-1.8,13.28,-3.36,0.64,4
25341,8.27,3.12,-2.05,14.5,-7.38,3.51,4
25365,8.28,3.01,-2.3,13.1,-10.19,6.44,4
25390,8.44,2.85,-2.42,8.95,-3.97,7.53,4
25414,8.56,2.85,-2.39,4.74,-1.59,5.28,4
25439,8.44,2.89,-2.53,-0.62,0.54,1.86,4
25464,8.36,2.92,-2.34,-5.2,7.19,1.74,4
25488,8.29,3.08,-2.29,-8.55,3.23,2.78,4
25514,8.27,3.19,-2.01,-10.5,5.12,2.47,4
25538,8.41,3.26,-1.87,-10.93,9.08,3.27,4
25563,8.46,3.28,-1.73,-10.38,3.53,4.67,4
25587,8.61,3.26,-1.79,-9.34,2.62,5.83,4
25612,8.77,3.35,-1.8,-9.1,3.96,5.95,4
25637,8.84,3.26,-1.83,-9.52,-0.86,4.49,4
25661,8.74,3.23,-1.64,-9.59,1.46,1.01,4
25686,8.6,3.25,-1.61,-8.31,3.96,-2.22,4
25710,8.42,3.39,-1.58,-6.11,0.91,-2.47,4
25736,8.23,3.52,-1.52,-4.71,-2.57,-2.22,4
25760,8.08,3.52,-1.47,-3,-0.61,-3.32,4
25785,8.06,3.55,-1.56,-0.81,-0.74,-4.48,4
25810,8.02,3.53,-1.58,1.82,0,-3.26,4
25834,8.07,3.43,-1.65,4.44,-2.63,-1.18,4
25859,8.18,3.32,-1.67,6.76,-7.5,-0.03,4
25883,8.19,3.2,-1.81,7.55,-5.43,0.03,4
25908,8.15,3.14,-2.07,7.18,-4.33,1.07,4
25933,8.25,3.1,-2.3,4.8,-6.28,3.57,4
25957,8.33,3.02,-2.46,0.05,-5.19,4.49,4
25982,8.47,2.94,-2.33,-5.2,-0.8,3.75,4
26007,8.4,2.86,-2.13,-8.98,-0.68,3.75,4
26032,8.45,2.94,-1.99,-11.35,-0.37,3.51,4
26056,8.57,3.01,-1.75,-12.7,3.35,1.93,4
26081,8.45,3.04,-1.51,-12.51,3.47,0.4,4
26106,8.39,3.19,-1.54,-11.6,3.17,0.58,4
26130,8.36,3.27,-1.55,-11.23,0.12,2.78,4
26155,8.45,3.41,-1.58,-12.39,1.03,3.63,4
26179,8.61,3.46,-1.29,-12.02,5.73,2.29,4
26205,8.62,3.48,-0.97,-8.37,3.78,-0.09,4
26229,8.74,3.44,-0.83,-2.02,3.59,-0.39,4
26254,8.61,3.43,-1.04,4.8,-2.87,-0.33,4
26279,8.45,3.47,-1.49,8.1,-5.61,-0.88,4
26303,8.42,3.33,-1.74,8.71,-2.93,-2.16,4
26328,8.38,3.28,-1.95,7.61,-4.15,-2.53,4
26352,8.38,3.19,-1.97,5.9,-3.11,-1.31,4
26377,8.55,3.06,-1.97,4.01,-3.72,-0.94,4
26402,8.64,2.94,-1.97,1.88,-3.6,-1.86,4
26426,8.46,2.9,-1.92,-0.38,-1.59,-3.38,4
26452,8.27,2.88,-1.79,-2.21,0,-4.72,4
26476,8.07,2.95,-1.67,-3.06,3.47,-4.29,4
26501,7.89,2.93,-1.55,-1.84,2.56,-2.1,4
26525,7.78,2.94,-1.64,-0.07,-0.86,2.05,4
26550,7.91,3.01,-1.73,0.17,-2.63,6.44,4
26575,8.11,3.11,-1.89,-2.21,-0.31,8.69,4
26599,8.42,3.06,-2.02,-5.99,4.08,9.3,4
26624,8.69,3.17,-1.81,-10.01,6.34,9.3,4
26648,8.93,3.21,-1.46,-11.11,5.3,6.99,4
26673,8.99,3.39,-1.22,-10.13,6.82,3.75,4
26698,8.89,3.42,-0.9,-6.29,7.5,1.13,4
26723,8.75,3.45,-0.85,-0.74,1.58,-0.45,4
26748,8.6,3.58,-1.01,4.99,-0.92,-0.39,4
26772,8.4,3.53,-1.32,8.65,-3.6,0.1,4
26797,8.19,3.47,-1.62,9.62,-5.25,0.52,4
26821,8.25,3.38,-1.85,8.59,-0.8,0.83,4
26846,8.5,3.21,-1.87,7.18,0.12,0.77,4
26871,8.73,3.11,-2.01,6.57,-1.35,0.58,4
26895,8.81,2.99,-2.25,5.11,-5.25,-0.15,4
26920,8.66,2.88,-2.24,2.18,-4.33,-2.04,4
26944,8.63,2.91,-2.24,-1.78,1.52,-3.81,4
26970,8.57,2.89,-2.09,-4.77,0.3,-4.84,4
26994,8.46,2.92,-1.87,-6.72,0.36,-5.27,4
27019,8.29,2.86,-1.67,-7.57,1.15,-5.39,4
27044,8.2,2.97,-1.67,-8.18,1.76,-4.48,4
27068,8,3.02,-1.66,-8.43,1.4,-2.22,4
27093,8.15,3.09,-1.36,-8.12,2.31,0.95,4
27117,8.25,3.11,-1.25,-6.72,1.28,2.78,4
27142,8.21,3.19,-1.11,-3.91,0.54,3.27,4
27166,8.46,3.15,-1.22,-2.33,8.65,2.72,4
27191,9.41,3.15,-1.6,-3.18,22.62,-2.83,4
27217,9.74,3.23,-1.77,-7.39,22.68,-13.14,4
27241,9.26,3.38,-1.62,-12.51,20.18,-20.82,4
27266,8.92,3.55,-1.53,-16.11,26.21,-22.83,4
27290,8.4,3.72,-1.02,-16.96,17.43,-20.88,4
27315,7.91,3.85,-0.57,-14.46,8.53,-18.68,4
27341,7.46,3.94,-0.49,-10.26,7.56,-15.51,4
27365,7.26,4.11,-0.3,-4.46,8.53,-9.72,4
27390,7.15,4.14,-0.32,2.61,-0.55,-1.43,4
27414,7.17,4.05,-0.67,8.28,-9.33,6.62,4
27439,7.71,4,-1.13,10.72,-5.25,12.35,4
27463,8.06,3.8,-1.22,11.09,-13.72,15.58,4
27489,8.48,3.67,-1.4,9.62,-9.46,15.34,4
27514,9.06,3.55,-1.46,6.88,1.58,11.44,4
27538,9.6,3.36,-1.6,4.56,-3.11,6.01,4
27563,9.61,3.21,-1.54,1.21,1.34,-1.12,4
27587,9.58,3.22,-1.52,-2.27,10.18,-10.09,4
27612,9.24,3.28,-1.46,-5.68,10.42,-16.67,4
27636,8.67,3.36,-1.35,-8.55,3.96,-19.36,4
27662,7.71,3.41,-1.21,-10.62,1.82,-17.34,4
27687,7.23,3.42,-0.86,-9.83,-0.37,-11.25,4
27711,7.01,3.55,-0.71,-7.7,-5.68,-3.38,4
27736,7.17,3.62,-0.8,-5.62,-3.48,4.18,4
27760,7.43,3.57,-0.86,-4.95,-4.76,10.34,4
27785,7.83,3.57,-1.02,-6.48,-7.5,14.12,4
27810,8.35,3.62,-1.07,-8.79,-3.11,16.07,4
27835,8.76,3.7,-0.97,-11.29,-0.98,14.73,4
27860,9.11,3.68,-0.83,-12.39,2.92,10.58,4
27884,9.48,3.79,-0.54,-11.72,5.85,4.18,4
27909,9.23,3.92,-0.39,-9.71,3.47,-1.92,4
27933,8.88,3.98,-0.34,-6.17,5.06,-5.64,4
27958,8.54,3.97,-0.24,-1.54,3.78,-6.06,4
27983,8.35,3.99,-0.37,3.65,-0.74,-4.54,4
28007,8.17,4,-0.51,8.16,-2.2,-2.1,4
28032,8.14,3.86,-0.72,10.6,-3.97,-0.33,4
28057,8.2,3.72,-0.96,11.76,-3.97,0.52,4
28082,8.37,3.64,-1.19,11.76,-3.11,0.52,4
28106,8.4,3.46,-1.34,10.84,-6.04,0.58,4
28131,8.36,3.34,-1.57,9.26,-8.11,0.58,4
28156,8.31,3.34,-1.8,6.15,-6.28,0.1,4
28180,8.22,3.25,-1.75,2.49,-4.39,0.03,4
28205,8.21,3.24,-1.73,-1.66,-1.83,1.19,4
28229,8.29,3.25,-1.52,-4.83,-2.75,3.39,4
28254,8.55,3.26,-1.26,-6.96,-2.87,2.9,4
28280,8.52,3.27,-1.29,-8.24,0.61,0.46,4
28304,8.2,3.36,-1.22,-9.52,0.73,-0.94,4
28329,8.22,3.41,-1.29,-10.87,3.04,0.34,4
28353,8.35,3.48,-1.1,-11.54,4.75,1.01,4
28378,8.48,3.54,-0.94,-11.66,2.74,0.4,4
28402,8.4,3.71,-0.9,-10.87,0.73,0.34,4
28427,8.52,3.73,-0.72,-9.65,3.41,1.38,4
28452,8.58,3.82,-0.54,-8.06,-0.31,2.47,4
28476,8.72,3.82,-0.5,-6.17,0.36,1.74,4
28502,8.88,3.82,-0.32,-3.43,1.58,-0.57,4
28526,8.75,3.82,-0.29,-0.26,-2.02,-3.07,4
28551,8.53,3.82,-0.34,3.22,0.85,-5.15,4
28575,8.21,3.8,-0.59,6.02,-0.43,-5.21,4
28600,8.05,3.73,-0.78,7.3,-1.83,-3.44,4
28625,8.19,3.66,-0.8,7.98,0.97,-1.18,4
28649,8.21,3.6,-0.89,8.77,-2.44,-0.88,4
28674,8.26,3.63,-1.17,8.59,-1.1,-1.43,4
28698,8.19,3.49,-1.33,6.69,1.28,-0.51,4
28723,8.32,3.51,-1.33,4.26,-0.31,0.77,4
28747,8.43,3.47,-1.29,2.3,0.42,0.22,4
28772,8.64,3.57,-1.27,1.63,3.72,-1.12,4
28798,8.41,3.5,-1.33,1.21,0.3,-2.71,4
28822,8.16,3.57,-1.29,0.17,0.61,-2.28,4
28847,7.96,3.62,-1.31,-1.35,0.06,-0.7,4
28871,7.98,3.61,-1.21,-2.39,0.79,0.22,4
28896,7.89,3.61,-1.13,-2.57,2.37,1.19,4
28921,8.07,3.62,-1.1,-2.45,1.09,3.21,4
28945,8.17,3.68,-1.07,-2.33,-3.24,4.91,4
28970,8.21,3.59,-1.01,-3.55,-1.22,4.97,4
28994,8.33,3.64,-0.94,-4.16,2.74,4.91,4
29019,8.57,3.63,-0.7,-3.55,-0.07,4,4
29043,8.66,3.64,-0.75,-2.39,-0.61,3.75,4
29069,8.76,3.72,-0.55,-1.54,0,2.53,4
29094,8.74,3.73,-0.44,-0.07,0.42,-0.33,4
29118,8.72,3.87,-0.33,2.06,2.98,-3.01,4
29143,8.43,3.84,-0.39,4.99,0.97,-4.97,4
29167,7.96,3.83,-0.3,8.52,-0.61,-5.45,4
29192,7.66,3.84,-0.63,11.82,1.7,-3.68,4
29216,7.6,3.81,-0.86,14.13,0.24,1.38,4
29241,7.8,3.77,-1.07,15.17,-4.33,6.32,4
29266,8.15,3.66,-1.4,14.44,-4.82,8.33,4
29290,8.6,3.6,-1.57,12.12,-4.39,7.53,4
29316,8.77,3.5,-1.71,9.01,-4.7,5.89,4
29340,8.99,3.45,-1.69,4.87,-2.08,3.57,4
29365,9.11,3.42,-1.55,2.18,-2.57,-0.39,4
29390,9.03,3.41,-1.48,0.54,-1.59,-5.39,4
29414,8.54,3.45,-1.44,-0.81,0.67,-8.44,4
29439,8.07,3.48,-1.38,-1.9,0.12,-7.47,4
29463,7.87,3.39,-1.26,-2.63,1.4,-4.11,4
29488,7.82,3.43,-1.07,-2.33,0.79,-0.45,4
29512,7.9,3.4,-1.07,-1.05,-0.43,3.02,4
29537,8.07,3.37,-1.19,-1.17,-1.1,5.71,4
29563,8.21,3.44,-1.22,-3.24,-0.8,7.35,4
29587,8.42,3.52,-1.05,-6.11,4.08,7.78,4
29612,8.72,3.62,-0.89,-8,5.73,6.8,4
29636,8.95,3.57,-0.39,-7.63,5.79,3.69,4
29661,8.86,3.71,-0.09,-5.2,10.3,-0.51,4
29685,8.54,3.78,-0.2,-1.35,9.32,-3.07,4
29710,8.36,3.71,-0.2,2.67,9.69,-2.34,4
29735,8.29,3.81,-0.43,7,9.57,0.03,4
29759,8.13,3.7,-0.68,10.11,2.62,2.72,4
29784,8.29,3.71,-1,11.39,1.89,3.69,4
29808,8.32,3.68,-1.24,10.6,5.18,2.47,4
29834,8.36,3.56,-1.4,8.46,4.39,0.64,4
29859,8.27,3.59,-1.42,6.88,6.09,-1.43,4
29883,8.22,3.58,-1.41,6.39,8.29,-1.61,4
29908,8.17,3.47,-1.37,7.55,4.45,-0.03,4
29932,8.27,3.46,-1.54,8.34,-0.25,3.63,4
29957,8.45,3.26,-1.64,7.91,-3.91,7.29,4
29981,8.76,3.15,-1.74,6.27,-8.05,8.94,4
30006,8.84,3.08,-1.79,3.28,-10.13,7.72,4
30031,8.74,3,-1.82,-1.66,-7.93,3.27,4
30056,8.54,2.98,-1.75,-7.09,-0.74,-0.21,4
30081,8.29,3.04,-1.7,-11.9,-1.1,-0.51,4
30105,7.97,3.02,-1.36,-15.74,0.3,1.5,4
30130,7.99,3.14,-1.23,-18.12,4.08,4.97,4
30154,8.24,3.29,-0.82,-19.22,1.4,8.14,4
30179,8.59,3.39,-0.64,-19.16,2.43,8.94,4
30204,8.76,3.48,-0.29,-17.51,2.98,7.6,4
30228,9.03,3.63,-0.05,-14.28,2.07,4.61,4
30254,8.93,3.8,0.09,-9.71,3.72,1.19,4
30278,8.7,3.84,0.33,-3.67,4.32,-0.94,4
30303,8.53,3.78,0.23,4.44,0.79,-0.64,4
30328,8.36,3.75,-0.11,12.06,-5.37,0.95,4
30352,8.15,3.71,-0.68,16.02,-6.83,3.39,4
30377,8.38,3.48,-1.16,16.51,-6.28,5.52,4
30401,8.6,3.33,-1.54,14.56,-7.93,5.58,4
30426,8.83,3.2,-1.82,10.84,-7.38,3.88,4
30450,8.95,3.09,-1.86,6.15,-6.71,1.19,4
30476,8.97,2.98,-1.83,1.63,-7.08,-0.88,4
30501,8.96,2.96,-1.73,-2.88,-6.04,-3.07,4
30525,8.88,2.94,-1.6,-6.78,-2.93,-4.78,4
30550,8.52,2.91,-1.26,-9.28,-4.82,-6.43,4
30574,8.38,2.98,-1.12,-10.81,-1.59,-6.37,4
30599,8.22,3.01,-0.87,-10.68,-0.68,-4.78,4
30623,8.07,2.95,-0.79,-10.07,-2.38,-2.34,4
30648,8.02,3.1,-0.85,-10.32,0.36,0.03,4
30674,8.2,3.14,-0.57,-10.5,1.52,1.19,4
30698,8.43,3.17,-0.41,-9.34,2.56,1.68,4
30723,8.47,3.27,-0.37,-6.9,3.41,1.99,4
30747,8.51,3.23,-0.22,-3.98,3.17,2.47,4
30772,8.6,3.37,-0.3,-1.23,2.37,2.53,4
30797,8.59,3.42,-0.33,0.96,3.59,2.41,4
30821,8.57,3.42,-0.35,3.52,4.81,1.86,4
30846,8.53,3.55,-0.41,6.45,3.29,0.71,4
30870,8.44,3.49,-0.54,9.13,3.53,0.34,4
30895,8.34,3.5,-0.77,11.63,4.02,0.64,4
30919,8.26,3.41,-1.03,13.52,-0.37,1.32,4
30945,8.37,3.43,-1.41,12.73,1.76,1.8,4
30970,8.6,3.39,-1.51,11.51,3.23,2.78,4
30994,8.85,3.32,-1.64,10.54,-2.08,2.72,4
31019,8.99,3.25,-1.67,8.95,-5.19,0.83,4
31043,9,3.22,-1.74,7.06,-2.93,-2.04,4
31068,9,3.21,-1.93,4.26,-0.61,-3.87,4
31092,8.95,3.23,-1.81,1.76,-5.49,-4.17,4
31117,8.75,3.13,-1.68,-0.87,-8.72,-5.64,4
31142,8.6,3.06,-1.55,-3.12,-4.15,-7.4,4
31167,8.24,3.13,-1.37,-4.65,-4.88,-7.89,4
31192,8.09,3.09,-1.21,-5.44,-6.22,-6.31,4
31216,8.07,3.12,-1.04,-5.32,-4.58,-4.05,4
31241,7.93,3.22,-0.94,-5.32,-5.55,-1.98,4
31266,7.94,3.1,-0.92,-5.38,-4.21,0.16,4
31290,8.09,3.11,-0.98,-5.56,-2.81,2.9,4
31315,8.29,3.09,-1.06,-6.66,-2.93,4.97,4
31339,8.42,3.15,-1.12,-8.31,-1.04,5.64,4
31364,8.66,3.13,-0.99,-9.77,1.03,5.16,4
31388,8.8,3.31,-0.9,-10.13,2.62,4.12,4
31414,8.72,3.35,-0.7,-9.65,3.29,2.96,4
31439,8.66,3.43,-0.75,-8.43,2.92,1.74,4
31463,8.6,3.52,-0.68,-6.78,2.8,1.13,4
31488,8.56,3.56,-0.5,-4.1,4.08,-0.09,4
31512,8.42,3.59,-0.42,-0.68,1.46,-0.21,4
31537,8.47,3.61,-0.64,3.34,0.91,-0.88,4
31561,8.44,3.55,-0.68,6.82,1.52,-1,4
31586,8.22,3.48,-1.02,9.74,-1.89,-0.88,4
31611,8.22,3.42,-1.25,9.93,-0.86,-0.03,4
31635,8.43,3.4,-1.52,8.77,-0.07,1.13,4
31660,8.54,3.31,-1.61,7.12,-2.69,1.38,4
31684,8.69,3.22,-1.7,4.99,-1.04,1.38,4
31710,8.69,3.2,-1.69,2.98,-2.44,0.28,4
31735,8.72,3.19,-1.78,0.9,-2.99,-1.61,4
31759,8.65,3.17,-1.68,-1.23,-0.98,-2.65,4
31784,8.52,3.16,-1.7,-3.73,-2.87,-1.67,4
31808,8.47,3.2,-1.58,-6.48,-4.88,-1,4
31833,8.56,3.16,-1.42,-9.34,-1.41,-1.79,4
31857,8.35,3.15,-1.19,-11.11,-1.1,-3.01,4
31882,8.32,3.22,-0.87,-11.11,1.03,-2.83,4
31907,8.31,3.27,-0.76,-9.83,1.34,-1.31,4
31932,8.27,3.29,-0.61,-8.67,-0.13,0.58,4
31957,8.41,3.3,-0.51,-7.45,3.84,2.05,4
31981,8.63,3.3,-0.28,-5.44,3.96,2.47,4
32006,8.77,3.35,-0.24,-2.57,2.68,1.38,4
32030,8.82,3.36,-0.26,0.66,4.57,0.03,4
32055,8.63,3.51,-0.39,3.65,1.52,-1.92,4
32080,8.5,3.46,-0.51,5.72,3.41,-3.93,4
32104,8.12,3.55,-0.49,8.04,6.22,-4.29,4
32129,7.88,3.51,-0.65,10.23,5.48,-3.07,4
32153,8.02,3.56,-0.79,12.67,6.28,-0.39,4
32178,8.17,3.49,-0.85,15.23,2.62,2.41,4
32203,8.14,3.45,-1.23,16.76,0.12,3.82,4
32228,8.36,3.39,-1.58,16.57,1.95,4.24,4
32253,8.47,3.28,-1.8,15.41,0.24,4,4
32277,8.65,3.19,-2.02,12.61,0.48,4.49,4
32302,8.77,3.17,-2.12,9.32,-4.03,3.94,4
32326,8.81,3.14,-2.19,4.87,-6.04,2.66,4
32351,8.88,3.1,-2.09,1.02,-1.22,1.32,4
32376,8.86,3.05,-2.02,-2.39,-3.97,0.77,4
32400,8.79,3.13,-1.8,-5.01,-6.35,0.4,4
32426,8.72,3.23,-1.65,-7.94,-4.15,0.4,4
32450,8.62,3.22,-1.4,-10.2,-3.18,-0.03,4
32475,8.57,3.21,-1.27,-11.66,-4.15,-0.03,4
32499,8.58,3.26,-1.07,-13.06,-5.31,-0.64,4
32524,8.58,3.26,-1.09,-15.44,-2.75,-2.95,4
32549,8.52,3.35,-0.78,-17.33,5.06,-5.27,4
32573,8.41,3.4,-0.51,-17.27,6.03,-6.06,4
32598,8.41,3.41,-0.26,-14.83,4.2,-6,4
32623,8.31,3.52,0.14,-10.68,7.98,-6.31,4
32648,8.22,3.6,0.16,-4.4,8.78,-6.98,4
