t_ms,ax,ay,az,gx,gy,gz,label
5,6.13,7.6,-2.46,-20.13,34.63,-30.64,1
29,5.48,7.82,-2.29,-21.54,16.89,-28.44,1
54,5.31,7.74,-1.82,-20.5,4.57,-24.11,1
79,5.06,7.8,-1.54,-18.61,3.84,-21,1
103,4.93,7.66,-1.29,-17.33,-7.32,-18.62,1
128,4.83,7.63,-0.94,-15.32,-5.98,-18.81,1
152,4.82,7.69,-0.7,-13.12,-4.82,-19.9,1
177,4.83,7.8,-1.13,-10.87,8.11,-19.36,1
201,4.01,7.95,-1.19,-12.45,-1.89,-17.59,1
226,4.11,8.07,-0.91,-12.82,8.17,-13.62,1
252,3.96,8.15,-0.8,-11.41,14.57,-7.22,1
276,3.8,8.29,-0.78,-10.26,-1.35,-1.79,1
301,4.42,8.16,-0.38,-6.54,9.32,1.74,1
325,4.17,8.12,-0.34,-1.84,5.48,5.77,1
350,4.51,8.41,-0.5,1.57,-8.6,10.28,1
375,4.67,8.15,-0.44,4.68,-5.25,12.72,1
399,4.54,8,-0.62,6.02,-5.74,12.23,1
424,4.53,8.08,-1.01,6.63,1.89,12.41,1
448,4.79,8.03,-0.74,6.69,8.35,12.78,1
473,5.04,7.91,-0.68,8.83,8.11,12.96,1
497,4.91,7.9,-0.96,9.8,1.09,13.08,1
522,4.86,8.04,-1.27,9.56,8.04,12.6,1
547,5.83,7.74,-0.95,9.26,23.78,11.32,1
571,5.59,7.6,-1.55,8.34,-2.38,7.78,1
596,5.19,7.74,-1.7,1.69,-20.13,4.97,1
620,5.54,7.65,-1.45,-2.82,18.29,2.53,1
645,5.64,7.75,-1.32,-2.57,17.07,-1.18,1
669,5.36,7.68,-1.57,-3.12,-20.61,-3.5,1
694,5.29,7.61,-1.57,-5.13,-7.08,-4.84,1
719,5.01,7.67,-1.35,-7.88,9.14,-6.12,1
743,4.98,7.65,-1.28,-9.34,1.7,-6,1
768,4.9,7.83,-1.34,-9.59,-1.35,-3.2,1
792,4.77,7.87,-1.26,-11.66,-8.6,-0.45,1
817,4.78,7.72,-0.91,-13.12,-5.49,0.22,1
841,4.99,7.96,-0.58,-12.7,13.53,0.71,1
867,5.11,7.91,-0.13,-9.71,5.24,-0.76,1
892,5.2,7.88,0.08,-4.22,4.02,-1.67,1
916,5.07,7.98,0.32,1.76,8.35,-1.43,1
941,5.05,8.06,0.42,8.52,5,-1.55,1
964,4.93,8.1,0.63,16.02,6.4,-2.4,1
990,4.92,7.99,0.3,24.07,10.67,-0.51,1
1015,4.99,7.99,-0.57,28.89,7.5,1.56,1
1039,5.19,7.92,-1.64,26.63,-4.64,2.41,1
1064,5.2,7.74,-2.61,16.76,-1.59,1.5,1
1088,5.16,7.65,-3.02,4.07,3.96,0.16,1
1113,5.24,7.52,-2.7,-7.21,2.31,-1.92,1
1137,5.32,7.44,-2.12,-13.91,6.76,-2.59,1
1162,5.24,7.36,-1.57,-16.48,-0.49,-2.65,1
1187,5.11,7.46,-1.2,-15.74,-5.55,-3.2,1
1211,4.96,7.58,-1.06,-13.43,-4.64,-3.5,1
1236,4.76,7.66,-0.69,-11.41,-7.5,-3.2,1
1260,4.57,7.71,-0.8,-8.73,-3.6,-1.61,1
1286,4.47,7.84,-0.9,-7.82,-6.41,1.07,1
1310,4.5,7.86,-0.81,-8.85,-6.35,3.02,1
1335,4.67,7.88,-0.63,-9.16,1.09,3.82,1
1360,4.68,7.89,-0.53,-9.28,-0.19,5.34,1
1384,4.96,7.93,-0.45,-8.61,-3.78,6.13,1
1409,5.08,7.83,-0.56,-7.27,-1.65,6.32,1
1433,4.92,7.88,-0.66,-7.15,-3.54,6.44,1
1458,5.17,8.03,-0.48,-7.27,1.76,5.95,1
1482,5.55,7.99,-0.33,-5.07,6.89,5.16,1
1507,5.48,7.94,-0.5,-3.12,-4.82,4.67,1
1532,5.42,7.91,-0.6,-2.45,-3.72,3.82,1
1556,5.42,7.91,-0.66,-2.21,-0.31,1.5,1
1581,5.31,7.8,-0.67,-2.88,-1.71,0.16,1
1605,5.14,7.78,-0.74,-3.49,-1.41,0.64,1
1630,5.09,7.74,-0.6,-4.04,-2.69,0.71,1
1655,5.21,7.78,-0.59,-4.4,1.22,0.34,1
1679,5.24,7.82,-0.31,-3.43,4.14,0.16,1
1704,5.2,7.8,-0.28,-0.99,0.36,-1.55,1
1728,5.03,7.84,-0.41,1.09,0.48,-1.92,1
1753,5.05,7.89,-0.27,1.82,7.8,-1.67,1
1777,5,7.88,-0.18,4.26,6.89,-0.03,1
1802,4.97,7.92,-0.31,6.15,-1.35,1.38,1
1827,5.02,7.84,-0.49,7,0,2.9,1
1851,4.88,7.81,-0.46,6.39,-1.47,4.61,1
1876,4.74,7.62,-0.58,6.51,-1.83,7.23,1
1901,4.72,7.65,-0.47,6.27,1.28,9.73,1
1926,5.12,7.59,-0.5,7.18,3.96,11.25,1
1950,5.22,7.52,-0.6,8.77,1.46,11.62,1
1975,5.09,7.56,-0.68,8.89,-4.88,11.86,1
2000,5.2,7.54,-0.82,8.28,3.84,13.02,1
2024,5.56,7.53,-1.06,7.61,6.09,14.12,1
2049,5.5,7.48,-0.92,7.37,-8.48,13.88,1
2073,5.61,7.52,-0.97,6.94,-6.16,13.27,1
2098,5.63,7.43,-1.02,5.48,-0.19,12.84,1
2122,5.77,7.38,-1.07,4.56,-1.59,12.29,1
2147,5.75,7.46,-0.96,4.38,-3.3,11.32,1
2172,5.73,7.67,-0.51,4.19,-4.58,9.67,1
2196,5.9,7.69,-0.17,7.49,3.78,8.75,1
2221,6.18,8.01,1.15,15.35,3.59,7.29,1
2246,6.1,8.24,2.95,29.99,14.45,-0.88,1
2271,7.04,8.08,3.7,56.63,68.71,-7.04,1
2296,6.65,7.44,3.77,89.68,43.78,-9.17,1
2320,6.53,6.96,2.71,120.23,2.01,-9.9,1
2345,6.97,6.49,0.89,140.29,13.29,-12.28,1
2369,7.69,5.89,-0.91,149.01,4.81,-19.23,1
2395,8.71,5.36,-2.62,151.27,-8.05,-36.79,1
2419,10.12,5.18,-5.73,139.44,14.39,-62.53,1
2444,10.15,4.98,-8.87,112.24,10.36,-90.57,1
2469,9.1,5.03,-10.52,71.88,-18.24,-113.99,1
2494,8.34,4.98,-11.56,26.82,-14.7,-132.04,1
2519,7.04,4.87,-11.84,-19.89,-16.96,-145.82,1
2543,5.64,5.06,-10.77,-64.22,-35.86,-153.93,1
2569,5.47,4.9,-9.09,-100.26,-24.09,-161.55,1
2594,4,4.57,-7.41,-127.21,-24.21,-174.48,1
2618,1.66,4.48,-6.05,-149.89,-34.64,-178.62,1
2643,-0.31,4.51,-5.4,-171.23,-7.38,-173.32,1
2668,-0.47,4.51,-4.12,-193.97,24.2,-170.51,1
2693,-1.7,4.35,-2.73,-206.84,48.17,-166.12,1
2717,-3.63,4.04,-1.6,-219.22,17.68,-158.32,1
2743,-4.31,4.09,-0.35,-231.47,19.32,-144.05,1
2768,-6.35,3.47,1.14,-241.53,29.45,-131.31,1
2792,-5.77,3.09,2.58,-241.53,54.75,-117.52,1
2818,-7.7,2.94,4.34,-235.99,-7.44,-96,1
2842,-8.36,2.96,8.01,-220.92,-27.81,-69.9,1
2867,-7.58,3.54,10.25,-173.24,23.35,-41.98,1
2891,-9.18,4.47,12.47,-119.46,-26.65,-6.49,1
2917,-8.9,5.59,12.39,-59.52,-137.69,40.28,1
2942,-8.58,6.33,12.4,-15.38,-188.3,90.77,1
2966,-7.42,6.47,12.73,21.57,-173.17,132.23,1
2992,-4.49,6.56,12.81,59.8,-164.76,155.77,1
3016,-3.39,6.37,11.88,92.97,-213.36,162.17,1
3041,-2.11,6.33,10.07,112.85,-178.97,162.53,1
3067,-0.59,6.47,8.12,115.96,-96.1,167.29,1
3091,0.53,6.26,7.22,117.55,-114.7,171.5,1
3116,2.01,6.2,6.93,125.96,-147.08,174.67,1
3141,3.95,5.41,5.81,141.08,-132.14,178.2,1
3166,3.79,5.08,5.34,155.84,-127.87,180.83,1
3191,4.74,4.19,3.24,163.77,-144.33,177.47,1
3216,6.75,3.42,2.28,174.92,-120.8,174.06,1
3241,7.88,3.13,0.72,183.64,-120.37,163.87,1
3265,9.57,2.96,0.62,195.17,-163.6,138.39,1
3291,10.39,1.7,-0.15,204.01,-125,93.69,1
3315,12.35,1.7,-2.9,199.38,12.86,42.6,1
3340,14.45,1.93,-3.8,192.42,47.37,-0.09,1
3365,12.92,1.45,-2.51,189.13,-70.67,-46.85,1
3390,13.6,0.46,-2.84,191.51,-27.57,-98.56,1
3415,13.06,0.16,-4.83,194.07,65.18,-140.88,1
3439,11.55,0.43,-6.96,181.63,-2.87,-162.16,1
3465,9.45,0.43,-8.09,156.75,-63.66,-174.23,1
3490,8.51,1.46,-10.18,126.02,1.03,-183.8,1
3514,7.43,1.89,-11.56,91.88,-1.28,-185.88,1
3539,6.29,2.4,-12.01,47.49,-42.56,-181.18,1
3564,5.75,2.58,-12.35,-0.87,-46.22,-176.73,1
3589,4.65,2.97,-12.13,-48.67,-36.1,-175.45,1
3613,4.08,3.15,-10.61,-87.51,-45,-172.28,1
3639,2.99,3.56,-8.61,-116.17,-50.49,-166.12,1
3664,2.62,3.81,-7.01,-131.96,-29.82,-162.89,1
3688,1.57,4.1,-5.73,-139.83,-38.66,-160.45,1
3714,1.19,4.66,-4.49,-149.58,-48.11,-158.32,1
3738,-0.96,5.12,-3.17,-154.1,-33.97,-154.35,1
3763,-1.74,5.53,-2.43,-152.75,-12.57,-148.26,1
3787,-2.55,5.74,-2.19,-152.33,-5.37,-140.09,1
3813,-3.61,5.86,-2.23,-156.54,-3.48,-130.51,1
3838,-4.1,6.04,-1.44,-161.54,-6.71,-118.13,1
3862,-5.72,6.27,-0.27,-163.85,-37.5,-99.48,1
3888,-6.44,6.16,0.67,-167.75,-20.49,-77.16,1
3912,-6.72,6.22,1.2,-167.88,8.9,-52.28,1
3937,-7.9,5.96,1.67,-169.22,-36.59,-23.68,1
3962,-7.76,5.56,3.13,-170.74,-65.43,9.61,1
3986,-7.69,5.31,5.05,-165.62,-27.57,38.94,1
4012,-7.37,5,5.43,-155.38,-10.98,64.79,1
4036,-7.41,5.23,4.56,-149.65,-65.55,99.67,1
4061,-6.93,4.43,6.66,-145.86,-145.92,137.41,1
4087,-4.88,3.99,8.4,-128.36,-78.97,157.66,1
4111,-2.02,5.02,9.33,-107.82,-49.88,178.69,1
4136,0.15,5.22,11.83,-69.77,-166.53,190.64,1
4161,2.23,6.58,12.54,-13.12,-244.82,197.65,1
4186,1.7,5.64,12.38,44.87,-238.23,188.57,1
4210,3.3,5.73,11.33,88.83,-185.49,172.78,1
4236,6.26,4.9,9.35,113.71,-92.32,166.13,1
4261,4.96,5.51,7.27,132.61,-135.8,159.12,1
4285,7.21,4.97,6.29,154.01,-152.02,152.72,1
4311,7.56,4.82,4.64,167.61,-195.25,141.13,1
4335,8.55,4.23,3.53,178.16,-197.01,123.75,1
4360,8.13,3.67,2.49,187.18,-147.81,101.38,1
4386,9.49,2.87,1.62,194.86,-110.31,81.01,1
4410,10.83,2.25,0.13,199.86,-81.65,53.63,1
4435,10.57,1.52,-0.32,205.78,-71.16,23.33,1
4459,11.82,1,-1.62,208.95,-12.5,-6.06,1
4485,11.69,0.9,-2.44,211.57,-35.31,-30.15,1
4509,11.03,0.61,-4.06,202.61,-64.82,-60.45,1
4534,11.55,0.01,-4.99,192.85,-16.04,-86.98,1
4560,11.61,-0.36,-5.65,186.21,-5.25,-108.81,1
4584,11.13,-0.55,-7.95,168.95,-34.21,-133.13,1
4609,10.72,-0.25,-9.92,137.06,-9.88,-157.1,1
4633,9.79,0.18,-11.35,99.01,-19.21,-174.78,1
4659,8.21,0.21,-12.46,55.11,-44.33,-188.87,1
4683,7.74,0.72,-12.57,9.38,-29.21,-196.37,1
4708,6.39,1.45,-12.44,-35.38,-35.43,-199.78,1
4734,4.59,1.89,-11.07,-77.57,-57.26,-195.82,1
4758,4.02,2.6,-9.05,-106.05,-38.97,-188.68,1
4783,3.26,3.03,-6.65,-120.74,-45.61,-184.05,1
4808,2.23,3.7,-4.87,-122.57,-35.19,-180.82,1
4833,1.08,4.06,-3.87,-117.45,-34.03,-176.43,1
4858,-0.45,4.48,-3.44,-113.36,-36.53,-166.67,1
4882,-2.01,5.22,-3.87,-110.74,-23.17,-152.22,1
4908,-2.93,5.54,-4.94,-118.61,-13.91,-133.2,1
4932,-4.01,6.27,-4.94,-138.55,-3.24,-111.37,1
4957,-3.83,6.37,-3.76,-150.99,-3.78,-94.29,1
4983,-4.68,6.54,-3.01,-160.86,-17.32,-83.2,1
5007,-5,6.38,-1.79,-172.69,-3.05,-66.49,1
5032,-5.91,6.57,-0.71,-178.67,6.7,-43.5,1
5056,-7.29,6.72,0.51,-187.08,-36.89,-18.68,1
5081,-5.86,6.05,2.3,-185.13,-12.63,6.86,1
5106,-5.98,5.72,2.16,-179.4,-34.39,37.9,1
5131,-6.33,5.41,3.02,-185.56,-105.13,72.11,1
5156,-5.68,4.89,5.13,-187.33,-38.42,98.08,1
5180,-3.41,4.78,6.69,-178.18,18.9,118.27,1
5206,-2.25,4.94,7.8,-156.84,-123.36,136.98,1
5230,-1.91,4.95,9.69,-130.56,-195.8,154.3,1
5255,-0.21,5.05,10.04,-96.84,-67.44,165.58,1
5280,1.63,5.68,9.83,-75.74,-69.45,178.39,1
5305,3.49,6.01,11.93,-34.16,-227.08,187.11,1
5330,4.5,6.43,12.67,26.45,-299.76,185.34,1
5355,6.32,6.08,11.62,82.79,-245.49,169.67,1
5380,5.9,5.69,10.05,124.38,-171.1,148.51,1
5404,6.99,5.2,8.14,154.07,-125.67,138.57,1
5430,8.35,4.89,6.57,180.84,-133.97,129.61,1
5455,9.84,3.09,5.88,210.23,-185.25,113.14,1
5479,9.92,2.68,4.17,230.6,-171.16,83.94,1
5505,9.63,1.72,2.95,246.39,-95.74,51.62,1
5529,11.48,0.17,0.84,253.34,-30.92,20.46,1
5554,12.28,0.79,-0.5,249.62,-38.78,-8.2,1
5578,11.11,-0.06,-1.61,246.33,-84.58,-39.78,1
5604,11.45,-0.62,-3.21,237.91,-36.28,-72.71,1
5629,12.29,-0.55,-4.26,232.42,8.47,-93.38,1
5653,10.87,-1.06,-5.94,220.96,-81.28,-115.51,1
5679,10.72,-1.02,-8.66,191.94,-51.77,-138.01,1
5703,9.47,-0.68,-11.6,158.77,5.24,-149.41,1
5728,8.47,0.27,-13.13,118.22,-29.03,-156.31,1
5754,10.2,2.61,-13.07,64.26,-66.47,-158.07,1
5778,6.2,0.17,-13.15,16.02,-40.43,-160.27,1
5803,5.77,0.97,-12.74,-39.34,-61.95,-158.44,1
5828,5.15,1.25,-11.07,-77.57,-37.5,-156.55,1
5853,5.14,1.66,-8.99,-102.51,-49.7,-154.54,1
5877,4.67,2.06,-7.29,-115.38,-76.77,-156.49,1
5902,3.38,2.37,-6.24,-122.63,-80.43,-159.41,1
5928,1.78,2.94,-5.73,-129.22,-46.35,-161.37,1
5952,1.13,3.64,-5.64,-137.63,-34.09,-156.18,1
5977,-0.58,4.11,-5.59,-147.15,-45.8,-147.89,1
6002,-2.13,4.42,-5.08,-154.28,-40.49,-135.45,1
6027,-3,5.08,-4.77,-167.21,-40.13,-117.34,1
6052,-4.63,5.72,-3.64,-180.86,-44.88,-89.96,1
6077,-4.65,6.06,-2.44,-187.69,-37.5,-61.43,1
6102,-4.97,6.04,-1.2,-188.18,-33.66,-34.84,1
6126,-5.67,6.22,0.02,-189.83,-53.6,-5.27,1
6151,-6.89,6.68,1.54,-189.4,-92.38,31.74,1
6176,-5.8,6,3.67,-185.13,-83.54,66.44,1
6201,-5.45,5.8,3.33,-174.16,-66.83,101.5,1
6226,-7.29,5.4,3.23,-185.32,-116.53,142.41,1
6250,-3.36,4.17,6.07,-184.4,-55,175.34,1
6276,-1.33,3.65,7.16,-171.6,-35.49,197.53,1
6300,1.34,3.61,9.97,-141.9,-144.58,215.03,1
6325,3.07,4.11,11.7,-88.18,-183.66,217.47,1
6351,4.08,5.07,12.06,-34.28,-116.47,218.51,1
6375,6.46,4.86,10.59,15.66,-100.31,220.52,1
6400,8.11,4.78,10.5,74.56,-243.6,210.4,1
6425,8.35,4.91,9.04,128.28,-236.16,194.97,1
6450,9.49,4.41,6.37,164.5,-203.78,174.91,1
6474,11.1,3.44,3.27,182.91,-196.16,140.77,1
6500,12.38,2.51,1.25,188.22,-124.09,106.8,1
6525,12.06,2.2,1.19,188.71,-150.61,74.91,1
6550,11.78,1.53,-0.16,191.81,-152.99,34.85,1
6575,12.29,1.27,-0.22,193.4,-79.45,3.75,1
6599,11.51,-0.43,-0.42,205.23,-74.45,-23.75,1
6624,12.98,-0.41,-1.59,213.03,-51.96,-57.83,1
6650,11.63,-1.02,-2.82,215.96,-28.24,-86.12,1
6674,12.78,-1.98,-4.05,212.79,-15.8,-115.27,1
6699,13.32,-2.67,-5.22,209.62,14.69,-146.37,1
6724,12.5,-2.79,-7.02,194.44,-6.59,-176.91,1
6749,11.15,-2.29,-10.39,163.46,4.39,-199.17,1
6773,10.4,-2.22,-11.92,124.01,9.87,-206.43,1
6799,8.81,-1.55,-12.64,81.02,-42.32,-209.05,1
6824,7.59,-0.81,-13.14,33.58,-48.17,-209.78,1
6848,6.44,0.02,-13.29,-17.15,-31.71,-204.11,1
6874,5.73,0.43,-11.76,-62.21,-50.74,-198.26,1
6898,4.92,0.95,-9.39,-90.62,-60.06,-189.48,1
6923,5.04,1.74,-7.77,-106.17,-41.1,-184.9,1
6948,4.44,2.07,-6.39,-116.11,-42.56,-188.07,1
6973,2.76,2.47,-5.17,-121.47,-55.37,-187.59,1
6998,0.54,3.42,-4.69,-125.74,-32.5,-180.82,1
7022,-0.67,3.6,-5.05,-125.5,-24.15,-169.23,1
7048,-2.32,3.96,-4.91,-137.88,-30.07,-149.9,1
7072,-3.42,4.96,-4.41,-147.57,-8.78,-128.56,1
7097,-4.14,5.25,-3.92,-157.51,6.64,-111.55,1
7123,-4.08,5.54,-3.6,-169.77,27.43,-96.79,1
7147,-4.91,5.4,-2.91,-180.32,11.15,-76.31,1
7172,-5.91,5.66,-1.15,-189.52,-15.31,-49.54,1
7196,-6.16,5.66,0.29,-196.05,-14.15,-24.23,1
7222,-6.6,5.81,2.26,-196.47,12.31,3.57,1
7247,-6.81,5.71,3.65,-183,-26.28,34.49,1
7271,-7.48,5.91,3.86,-180.44,-84.45,68.33,1
7296,-5.53,5.15,7.5,-165.93,-47.14,97.05,1
7321,-5.21,5.69,7.22,-141.23,-42.56,117.35,1
7346,-4.58,5.77,8.59,-128.3,-107.93,143.87,1
7370,-1.75,6.03,10.39,-97.94,-85.98,168.87,1
7395,-0.58,6.26,10.2,-65.87,-112.75,191.5,1
7421,0.63,5.9,11.32,-28.24,-200.86,209.97,1
7445,2.85,5.73,10.76,22.61,-178.05,217.53,1
7470,3.85,5.95,9.11,59.56,-170.12,220.09,1
7495,4.85,5.09,7.93,93.1,-246.4,216.56,1
7520,6.72,4.17,6.28,122.91,-203.84,205.76,1
7545,8.95,3.75,5.35,145.41,-129.52,194.55,1
7570,10.16,3.17,3.94,169.68,-196.59,178.57,1
7595,9.88,2.05,2.18,189.74,-235.06,148.94,1
7619,11.65,1.7,0.41,200.05,-132.32,119.85,1
7645,10.73,0.94,0.51,209.19,-134.39,86.13,1
7669,14.96,-0.74,-0.13,221.81,-113.66,37.72,1
7695,14.21,-1.26,-0.75,238.46,-80.25,-17.59,1
7720,14.36,-2.46,-2.94,237.36,-67.44,-79.17,1
7744,15.42,-3.05,-3.56,233.7,-0.07,-125.88,1
7769,14.07,-3.97,-4.71,230.9,-69.27,-160.45,1
7794,12.43,-4.16,-8.36,208.7,-114.88,-193.56,1
7819,10.04,-3.37,-11.16,171.51,-60.06,-216.55,1
7845,7.68,-2.65,-13.89,128.77,-60.06,-216.49,1
7869,4.58,-1.33,-15.47,64.44,-101.04,-200.76,1
7894,2.8,-0.47,-15.41,-0.32,-86.77,-171.3,1
7919,2.79,0.2,-14.01,-55.44,-45.19,-142.52,1
7944,4.33,0.47,-10.89,-91.05,-47.99,-126.49,1
7968,5.23,0.83,-8.3,-109.95,-52.32,-126.73,1
7993,6.27,1.17,-6.2,-110.8,-25.74,-134.72,1
8019,5.6,1.46,-5.38,-106.96,-42.02,-151.12,1
8043,4.12,2.17,-5.19,-103.18,-43.42,-159.54,1
8068,2.23,2.9,-5.48,-102.69,-46.35,-161.3,1
8093,1.86,3.93,-6.03,-109.34,-18.54,-161.43,1
8118,1.06,4.37,-6.49,-121.35,-28.66,-160.15,1
8143,-2.08,4.62,-6.25,-139.95,-56.83,-153.56,1
8168,-3.45,4.93,-5.65,-157.69,-36.77,-139.05,1
8193,-3.9,5.48,-4.51,-165.01,-4.88,-115.76,1
8217,-4.02,5.51,-3.87,-171.17,-12.87,-95.51,1
8242,-4.87,5.3,-3.95,-181.54,13.65,-78.62,1
8267,-5.56,5.88,-2.59,-200.32,-6.96,-53.2,1
8292,-6.37,5.75,0.08,-203.79,-45.8,-23.01,1
8317,-6.39,6.01,1.7,-196.35,-44.03,9.91,1
8341,-6.16,6.13,2.93,-190.13,-52.26,40.28,1
8367,-6.28,5.83,4.57,-180.5,-75.92,66.44,1
8391,-4.54,6.31,5.95,-165.44,-70.25,93.57,1
8416,-3.91,5.98,8.1,-137.75,-96.65,111.68,1
8441,-3.26,6.32,6.77,-115.38,-85.92,122.05,1
8466,-2.25,6.94,6.47,-108.55,-81.71,139.06,1
8491,-1.02,6.32,9.34,-91.6,-113.23,150.46,1
8515,1.47,6.96,10.14,-60.38,-74.94,158.02,1
8541,2.46,7.21,11.12,-20.5,-141.65,166.37,1
8565,3.59,6.96,10.76,27.06,-188.84,166.92,1
8590,4.49,7.17,10.02,73.28,-144.09,160.52,1
8616,4.64,6.85,8.62,107.85,-136.47,158.69,1
8640,5.12,5.76,6.44,137.67,-197.2,158.57,1
8665,5.29,5.07,4.4,156.88,-177.08,159.79,1
8690,6.36,4.4,2.86,169.07,-114.76,160.34,1
8715,8.42,3.26,2.07,181.63,-145.06,156.07,1
8740,9.27,2.61,0.29,194.74,-216.53,139.36,1
8765,8.76,1.87,-1.05,197,-194.33,109.48,1
8790,10.36,0.85,-2.34,194.99,-74.52,74.36,1
8814,13.45,0.06,-3.08,193.34,-30.43,33.57,1
8840,12.77,-0.11,-3.36,194.5,-94.76,-12.34,1
8864,13.29,-1.11,-4.23,193.4,-69.45,-64.72,1
8889,14.73,-1.63,-4.43,196.75,32.37,-112.59,1
8914,13.26,-2.55,-4.93,201.14,-49.52,-152.16,1
8939,12.2,-2.77,-6.4,190.53,-69.45,-189.84,1
8964,11.39,-2.51,-7.33,179.25,-8.78,-212.34,1
8989,8.69,-2.76,-10.22,160.17,-87.26,-225.08,1
9014,5.03,-2.1,-14.54,116.88,-107.2,-226.98,1
9039,1.61,-0.43,-17.32,56.57,-58.24,-202.4,1
9064,-0.71,-0.91,-17.14,-11.35,-125.13,-162.89,1
9089,-0.11,0.55,-16.29,-86.66,-73.97,-122.59,1
9113,2.72,0.72,-12.63,-129.89,3.17,-101.31,1
9139,4.18,1.15,-9.29,-152.27,-38.85,-101.55,1
9163,5.31,2.32,-6.98,-159.34,2.25,-115.94,1
9188,5.69,2.24,-5.27,-149.46,-1.53,-137.22,1
9213,4.26,3.31,-4.74,-140.19,-23.36,-154.96,1
9238,2.43,3.63,-5.2,-136.96,-19.09,-165.02,1
9263,-0.4,3.72,-6.01,-145.25,1.58,-165.88,1
9287,-2.63,4.6,-6.04,-162.63,-0.86,-147.95,1
9313,-4.24,5.51,-5.03,-173.3,-29.58,-124.05,1
9338,-3.68,5.6,-3.85,-179.34,-2.02,-99.6,1
9362,-3.79,5.44,-2.67,-181.23,23.41,-82.1,1
9387,-6.29,5.81,-0.81,-176.78,-26.83,-56.06,1
9412,-7.6,6.8,-0.61,-176.41,-45.19,-17.59,1
9437,-7.71,7.22,1,-172.94,-19.76,24.85,1
9461,-6.22,6.73,2.3,-166.47,-58.78,66.99,1
9486,-5.43,6.53,2.8,-155.56,-90.06,101.86,1
9512,-4.05,6.35,3.68,-146.23,-120.31,135.4,1
9536,-3.63,5.64,4.03,-140.86,-119.09,160.89,1
9561,-2.17,5.1,4.57,-140.38,-82.14,182.78,1
9586,-0.14,5.35,6.46,-134.71,-72.81,196.25,1
9611,2.31,4.46,8.56,-103.67,-90.31,200.03,1
9636,3.14,5.22,7.51,-70.68,-136.65,209.91,1
9661,4.52,5.32,9.39,-34.4,-195.06,223.87,1
9686,9.04,5.53,10.08,21.57,-186.53,213.39,1
9710,10.15,5.9,9.55,80.72,-240.67,183.57,1
9735,9.34,5.94,7.63,122.24,-230.79,148.27,1
9760,8.78,5.37,5.91,148.52,-127.26,115.22,1
9785,10.88,4.49,4.3,167.49,-58.78,91.8,1
9810,11.61,3.42,3.13,184.25,-93.91,66.31,1
9835,10.59,2.64,1.01,189.31,-106.89,37.72,1
9860,10.73,2.01,-0.05,187.49,-28.05,9.24,1
9884,12.09,1.86,-0.1,192.73,23.17,-14.17,1
9910,11.95,1.16,0.77,210.11,-48.3,-38.99,1
9935,10.99,0.04,0.71,228.46,-73.42,-65.27,1
9959,11.73,-0.72,-1.2,242.06,20.73,-93.68,1
9984,10.94,-1.3,-2.8,247.85,17.43,-103.81,1
10009,10.47,-1.95,-4.84,244.25,-65.43,-112.77,1
10034,9.35,-1.66,-8.13,226.33,-54.52,-124.05,1
10059,8.9,-1.63,-10.56,192.55,-16.83,-132.59,1
10084,9.44,-0.87,-12.59,154.32,-48.05,-137.22,1
10109,6.84,-0.85,-14.63,111.69,-77.69,-137.1,1
10134,6.85,-0.22,-15.4,55.17,-82.26,-134.72,1
10159,5.24,0.37,-15.66,-8,-60.86,-130.7,1
10183,5.49,0.68,-14.38,-60.74,-40.55,-122.71,1
10209,5.98,0.68,-11.59,-97.51,-62.5,-123.2,1
10234,6.54,0.7,-9.12,-119.46,-50.67,-133.74,1
10258,5.7,1.4,-7.63,-130.74,-26.22,-146.98,1
10284,4.56,1.87,-6.59,-137.15,-28.72,-159.6,1
10308,2.54,2.4,-6.37,-141.84,-12.93,-163.8,1
10333,0.34,3.09,-6.21,-150.38,-2.57,-155.51,1
10359,-1.68,3.93,-5.87,-161.78,32.5,-143.74,1
10383,-2.58,4.96,-5.98,-171.84,103.96,-132.22,1
10409,-2.05,5.12,-5.69,-178,106.58,-117.04,1
10433,-3.17,5.34,-4.17,-188.18,20.48,-97.1,1
10458,-3.62,5.28,-2.88,-196.11,42.74,-77.83,1
10483,-3.24,5.29,-1.01,-200.93,50.79,-63.5,1
10508,-2.82,5.68,0.17,-198.18,50.42,-52.53,1
10533,-3.94,6.28,1.38,-196.84,26.28,-41.31,1
10557,-3.47,6.19,2.67,-188.12,3.9,-27.28,1
10583,-5.22,6.36,2.92,-185.19,-21.04,-8.2,1
10607,-4.2,6.21,5.38,-178.3,-28.66,12.6,1
10632,-3.92,6.2,6.26,-153.79,-47.81,34.49,1
10658,-5.25,6.31,5.31,-144.22,-135.86,66.25,1
10682,-4.91,6.42,6.94,-134.4,-129.39,111.38,1
10707,-2.52,5.88,7.89,-117.02,-87.26,150.16,1
10732,-0.36,6.01,9.71,-87.88,-201.71,185.64,1
10757,0.77,5.29,12.35,-32.76,-300.79,210.4,1
10781,2.3,5.89,10.51,23.34,-220.37,215.64,1
10807,3.56,5.46,9.31,53.83,-155.86,214.91,1
10832,6.41,4.64,8.82,84.07,-183.66,210.64,1
10856,8.33,4.11,7.89,121.27,-179.39,198.51,1
10882,8.89,3.49,5.83,152.67,-204.45,184.85,1
10906,9.78,2.44,4.15,176.45,-198.36,163.81,1
10932,12.41,1.02,1.8,191.94,-141.59,135.52,1
10957,11.87,1.55,0.93,201.57,-138.6,103.27,1
10981,10.65,0.41,-0.08,209.25,-184.58,62.35,1
11007,14.2,-1.49,-1.31,210.6,-34.15,6.44,1
11031,14.84,-1.65,-2.27,218.1,44.87,-30.45,1
11056,12.81,-2.45,-3.02,214.38,-124.15,-67.04,1
11081,13.06,-2.55,-3.32,212.85,-84.03,-107.83,1
11106,13.77,-3.47,-3.77,215.96,-9.58,-135.7,1
11132,12.01,-3.75,-5.56,215.41,-120.37,-162.89,1
11156,9.94,-2.52,-9.66,183.64,-119.7,-184.54,1
11181,6.26,-2.59,-12.01,146.45,-90.92,-184.66,1
11206,5.3,-1.72,-13.3,96.39,-155.8,-175.21,1
11231,2.68,-0.52,-15.12,34.01,-124.64,-158.2,1
11257,2.81,0.26,-14.5,-24.95,-53.3,-129.29,1
11281,3.33,0.69,-12.85,-66.72,-59.03,-103.93,1
11306,4.05,0.98,-10.97,-98.61,-66.1,-91.79,1
11331,5.44,1.15,-8.72,-116.78,-31.65,-91.37,1
11356,5.78,2.28,-7.75,-127.45,-31.1,-103.44,1
11380,5.8,2.19,-6.88,-133.43,-34.39,-122.77,1
11406,3.76,2.69,-6.67,-138.06,-30.98,-134.9,1
11431,1.5,3.1,-7.44,-151.6,-23.6,-138.13,1
11455,-0.44,3.75,-7.34,-175.13,23.04,-128.93,1
11481,-1.32,3.98,-7.19,-196.78,60.06,-120.27,1
11505,-1.91,4.66,-5.99,-205.38,54.32,-108.38,1
11530,-2.35,5.15,-3.61,-211.41,12.13,-88.13,1
11556,-2.75,5.6,-1.35,-210.5,20.48,-71.73,1
11580,-2.56,5.66,-0.22,-203.55,56.58,-61.67,1
11605,-3.36,6.13,-0.69,-202.45,44.32,-48.44,1
11630,-3.65,6.27,1.07,-206.11,7.92,-27.28,1
11655,-3.86,6.09,2.79,-197.39,55,-8.26,1
11679,-4.81,6.43,3.25,-196.29,-4.33,13.63,1
11704,-3.68,6.08,4.79,-193.85,-5.86,37.35,1
11730,-2.18,6.14,7.4,-173.43,-10,56.13,1
11754,-4.02,5.76,7.02,-154.28,-81.89,73.33,1
11779,-1.67,5.82,9.15,-135.8,-24.39,94.06,1
11803,-1.43,6.16,9.51,-104.1,-10.8,108.57,1
11829,-1.36,6.07,8.89,-79.77,-133.05,134.18,1
11854,0.6,6.27,10.34,-45.99,-166.34,170.89,1
11878,2.39,6.31,12.52,4.38,-190.06,189.61,1
11904,4.62,6.16,12.51,67.43,-225.61,187.84,1
11928,4.93,5.47,9.91,117.06,-222.2,178.45,1
11954,4.79,5.16,6.78,145.72,-185.73,171.74,1
11978,6.26,4.15,4.74,159.92,-136.1,165.89,1
12003,8.6,3.22,3.62,176.82,-146.53,161.44,1
12029,9,2.27,2.18,194.38,-223.23,148.69,1
12053,9.03,1.2,0.57,205.66,-184.27,127.35,1
12078,11.02,0.58,-1.14,209.13,-105.31,96.38,1
12103,13.12,0.42,-2.19,204.5,-85.98,55.95,1
12128,12.06,-0.65,-3.23,197.18,-132.56,4.06,1
12154,13.92,-1.16,-4.42,186.45,-4.27,-54.66,1
12178,14.31,-1.78,-4.34,183.89,28.96,-89.9,1
12203,12.92,-1.9,-5.07,180.72,-110.19,-123.26,1
12228,12.4,-1.75,-6.12,169.13,-59.82,-154.9,1
12253,11.27,-2.04,-7.04,159.25,-31.22,-175.21,1
12277,10.75,-1.74,-9.11,142.97,-75,-190.82,1
12303,10.59,-0.52,-11.33,114.74,-64.21,-195.63,1
12328,6.55,-0.82,-13.25,77.36,-117.08,-200.39,1
12353,5.49,0.44,-14.21,22.49,-125.37,-193.07,1
12378,2.64,0.76,-14.17,-35.38,-71.65,-179.66,1
12402,2.84,1.14,-13.35,-85.38,-61.35,-157.46,1
12428,2.88,1.39,-11.28,-120.32,-76.59,-139.54,1
12453,3.82,1.66,-8.82,-143.43,-61.1,-133.26,1
12477,4.33,2.2,-6.5,-153.91,-50.19,-135.57,1
12503,3.58,2.6,-5.57,-157.02,-44.76,-146,1
12527,1.35,3.21,-5.59,-158.06,-32.87,-152.34,1
12553,-1.19,3.6,-5.99,-167.39,-32.75,-148.13,1
12578,-2.18,3.66,-5.59,-185.44,-12.08,-134.66,1
12602,-3.44,4.38,-4.36,-197.63,-29.46,-113.01,1
12628,-4.54,4.85,-3.06,-201.78,-22.81,-95.51,1
12652,-4.95,4.88,-3.05,-209.4,38.59,-85.7,1
12677,-4.66,4.73,-2.36,-225.38,89.93,-76.12,1
12702,-5.79,4.4,-0.65,-227.57,45.97,-56.43,1
12727,-7.38,4.77,0.33,-225.92,-23.11,-23.56,1
12752,-9.04,3.97,1.36,-237.69,-22.44,16.25,1
12776,-7.36,3.89,4.98,-237.51,54.32,50.03,1
12802,-5.42,3.96,7.35,-217.27,31.09,69.24,1
12826,-6.88,4.29,7.42,-195.19,-114.7,98.27,1
12851,-4.95,3.98,10.96,-161.84,-135.8,135.09,1
12877,-1.73,4.63,13.08,-104.4,-53.66,156.62,1
12901,-0.49,6.66,14.47,-42.09,-178.84,179.97,1
12927,0.82,6.3,14.95,34.38,-282.99,185.52,1
12951,2.38,6.91,13.2,95.47,-167.44,179.42,1
12976,2.81,6.41,11.26,132.12,-143.36,175.76,1
13001,4.3,6.51,9.11,156.69,-139.27,173.63,1
13026,8.7,5.86,9.42,184.44,-69.33,166.92,1
13051,10.65,4.64,7.16,211.75,-132.75,147.66,1
13076,9.75,4.34,5.47,237.36,-209.03,108.94,1
13101,10.21,3.86,2.92,248.22,-96.95,67.6,1
13126,12.75,2.48,1.37,249.38,6.03,22.53,1
13151,14.5,2.04,-0.04,254.01,-13.3,-18.01,1
13176,12.87,1.25,-1.93,248.52,-89.64,-62.95,1
13201,13.9,1.58,-4.65,226.39,0.54,-110.09,1
13226,13.84,1.55,-6.7,206.63,55.06,-142.95,1
13250,12.53,1.92,-8.49,178.71,-46.83,-171.3,1
13276,11.37,1.55,-10.4,141.51,-49.15,-196.67,1
13300,9.79,2.67,-13.15,102.18,-21.1,-211.06,1
13325,6.93,3.18,-13.98,49.87,-73.78,-215.76,1
13351,4.7,2.86,-13.25,-3.61,-65.61,-213.32,1
13375,4.75,2.83,-10.78,-38.49,-35.74,-204.29,1
13400,3.99,3.01,-8.78,-59.22,-78.48,-198.19,1
13425,2.4,2.83,-7.75,-77.27,-80.06,-195.63,1
13450,1.64,2.48,-7.06,-90.93,-41.35,-195.02,1
13475,-1.05,2.31,-6.74,-104.52,-65.67,-188.13,1
13500,-3.27,2.54,-6.54,-118.91,-67.56,-165.02,1
13525,-6.71,3.06,-6.41,-135.32,-68.17,-134.72,1
13549,-6.95,3.46,-5.49,-152.69,-24.82,-103.56,1
13575,-7.13,3.46,-4.41,-165.25,-6.59,-79.23,1
13599,-7.22,3.87,-3.49,-173.55,-29.21,-58.99,1
13624,-9.04,4.55,-2.64,-190.99,-43.78,-33.81,1
13650,-7.95,4.61,-0.86,-194.46,18.47,-5.09,1
13674,-8.41,4.33,0.42,-192.14,-24.46,21.92,1
13699,-8.72,4.78,2.01,-187.88,-76.95,48.21,1
13724,-8.52,4.56,3.55,-181.84,-38.54,75.7,1
13749,-7.69,4.78,5.81,-164.95,-45.8,97.66,1
13774,-8.15,4.21,6.23,-147.39,-92.69,124.42,1
13799,-6.63,5.71,9.08,-126.78,-90.06,157.59,1
13824,-3.44,5.86,10.92,-84.46,-64.64,179.42,1
13848,-1.53,6.68,12.35,-38.73,-139.88,196.8,1
13874,0.19,6.08,13.47,21.88,-197.44,201.5,1
13898,2.16,6.89,12.59,78.95,-147.81,196.37,1
13923,2.4,7.04,9.78,109.8,-122.32,185.52,1
13949,3.33,7.43,8.41,125.66,-105.31,172.05,1
13973,4.54,7.05,7.6,138.1,-60.86,158.57,1
13998,6.49,5.97,7.37,159.99,-38.36,152.53,1
14023,7.92,5.35,6.82,185.17,-69.64,145.77,1
14048,8.2,4.38,5.06,216.02,-89.21,129.91,1
14073,7.84,2.79,2.72,231.69,-67.87,107.23,1
14098,11.15,1.91,1.19,242.36,20.18,88.69,1
14123,12.4,0.67,1.49,258.64,-64.7,67.41,1
14147,9.97,0.47,-1.91,266.08,-145.73,27.53,1
14173,13.12,-0.38,-4.82,260.17,8.35,-12.71,1
14197,13.86,-0.74,-6.78,247.55,20.79,-45.15,1
14222,13.02,-1.41,-8.1,227.79,-120.73,-79.42,1
14248,11.98,-1.15,-11.34,192.3,-83.36,-118.13,1
14272,11.46,-1.13,-13.34,146.39,-30.55,-147.95,1
14298,9.91,-1.64,-13.74,100.72,-91.1,-173.38,1
14322,8.31,-0.78,-15.61,47.12,-79.15,-187.89,1
14347,5.83,-0.5,-16.08,-9.22,-70.49,-192.16,1
14373,5.2,-0.19,-14.3,-61.6,-81.77,-188.32,1
14397,3.93,-0.02,-12.08,-98.79,-83.11,-181.67,1
14422,2.61,0.69,-10.77,-128.12,-80.61,-172.71,1
14447,1.75,1.29,-9.11,-147.75,-57.99,-165.39,1
14472,0.36,1.75,-7.72,-159.95,-75.19,-157.22,1
14498,-1.21,2.42,-6.7,-174.46,-70,-148.38,1
14522,-2.81,3.05,-6.51,-187.33,-17.87,-134.78,1
14547,-4.89,3.11,-6.47,-203.18,-13.11,-117.46,1
14572,-6.14,3.47,-5.97,-225.07,-13.24,-93.56,1
14597,-6.52,3.62,-4.1,-241.9,45.79,-73.87,1
14621,-5.85,3.36,-2.46,-254.46,43.65,-65.27,1
14647,-7.31,3.63,-0.72,-260.62,34.45,-52.65,1
14672,-7.61,3.84,2.3,-249.77,19.2,-31.67,1
14696,-7.68,3.77,3.85,-232.63,-4.09,-5.76,1
14721,-8.61,4.63,4.6,-215.13,-19.58,21.07,1
14746,-8.38,4.29,5.19,-191.35,-63.6,49.24,1
14771,-9.35,4.63,6.87,-167.82,-126.47,92.84,1
14795,-7.36,4.96,8.86,-130.93,-204.39,150.22,1
14821,-4.27,5.73,11.21,-82.21,-240.18,203.39,1
14846,-2.57,5.78,12.85,-21.23,-295.73,237.04,1
14870,-0.42,6.09,11.65,30.66,-318.48,253.14,1
14896,3.69,5.17,12.4,78.89,-238.11,253.26,1
14920,7.32,4.24,12.53,121.45,-166.89,233.93,1
14946,10.23,3.58,9.61,165.41,-193.48,200.22,1
14971,12.93,3.14,5.48,199.5,-209.64,161.5,1
14996,11.78,3.19,3,208.58,-143.78,110.4,1
15021,12.6,2.43,1.57,207.3,-90.86,58.08,1
15045,13.05,2.01,0.92,205.11,-56.53,7.9,1
15071,14.07,1.53,0.21,206.27,-1.96,-38.26,1
15096,14.07,2.04,0.19,214.01,12.31,-73.14,1
15120,12.81,1.08,-0.47,223.77,-45,-107.22,1
15146,12.53,0.79,-2.06,229.5,-18.6,-139.05,1
15170,10.58,0.29,-3.33,238.7,-21.1,-158.5,1
15195,9.9,0,-7,239.56,-34.88,-164.84,1
15220,8.65,0.4,-10.71,217.61,-51.47,-157.65,1
15245,6.78,0.1,-12.46,174.07,-119.94,-154.29,1
15270,5.87,-0.28,-14.06,121.27,-92.14,-162.59,1
15295,5.36,0.19,-14.93,69.19,-44.52,-168.13,1
15320,4.8,-0.02,-13.92,23.83,-83.78,-168.68,1
15344,4.12,0.28,-14.64,-20.8,-80.55,-169.35,1
15370,2.86,0.39,-13.49,-60.44,-52.56,-168.62,1
15395,1.37,0.69,-13,-94.58,-64.21,-162.28,1
15420,-0.01,1.13,-12.07,-127.02,-62.75,-151,1
15445,-0.93,1.36,-11.14,-158.91,-46.28,-141.85,1
15469,-2.75,1.55,-10.88,-192.82,5.48,-138.26,1
15495,-4.45,2.28,-10.54,-231.05,63.65,-127.46,1
15519,-3.79,2.48,-7.5,-262.45,94.2,-116.73,1
15544,-2.78,2.35,-3.72,-268.36,40.36,-120.27,1
15570,-4.13,2.7,-0.64,-268.55,-16.22,-114.05,1
15594,-6.26,3.11,2.01,-244.71,19.93,-97.46,1
15619,-6.78,4.16,2.95,-212.75,51.46,-81.18,1
15644,-7.48,5.03,4.14,-183.79,15.85,-63.07,1
15669,-9.01,5.56,3.97,-149.95,-32.69,-27.77,1
15694,-10.9,6.75,2.93,-134.65,-82.63,19.79,1
15719,-11.96,6.11,4.04,-129.04,-113.72,70.22,1
15744,-10.11,5.67,4.4,-123.85,-60.61,122.35,1
15768,-7.16,5.7,5.46,-116.9,-74.21,163.51,1
15794,-5.37,6.01,7.8,-88.61,-205.25,194,1
15818,-3.75,6.04,8.5,-46.96,-253.23,217.53,1
15843,-2.81,5.49,9.08,-7.94,-223.17,234.85,1
15869,0.31,5.64,9.28,25.29,-171.65,244.61,1
15893,2.87,5.6,9.36,59.26,-167.14,242.9,1
15918,4.17,5.02,8.22,93.1,-179.76,235.89,1
15943,8.26,4.03,7.51,127.36,-166.89,222.53,1
15968,9.88,3.33,5.9,162.85,-156.53,200.46,1
15994,10.03,2.49,4.29,191.75,-224.94,171.01,1
16018,13,0.79,1.71,216.45,-156.1,129.85,1
16043,12.7,0.9,-0.18,228.1,-85.25,84.73,1
16068,12.52,0.4,-1.93,223.52,-103.05,35.03,1
16093,14.54,0.68,-4,215.84,-16.04,-16.31,1
16117,13.81,-0.27,-3.39,217,-40.13,-55.7,1
16143,12.65,-0.71,-4.51,214.99,-114.82,-100.21,1
16168,12.22,-0.93,-7.73,211.14,-11.65,-133.2,1
16193,11.82,-1.6,-8.22,206.39,-52.26,-140.82,1
16218,10.47,-1.89,-9.64,186.75,-196.71,-156.18,1
16242,9.29,-1.22,-12.71,143.95,-104.15,-180.21,1
16268,7.15,-1.41,-13.88,96.57,-41.35,-193.87,1
16293,4.41,-1.39,-14.77,43.77,-100.61,-197.83,1
16318,3.93,-0.44,-14.69,-3.85,-66.89,-187.04,1
16343,2.29,-0.05,-13.54,-44.28,-77.44,-171.06,1
16367,2.11,0.23,-11.88,-76.11,-101.71,-154.78,1
16393,1.56,0.65,-10.18,-102.94,-83.3,-143.13,1
16418,0.84,1.44,-8.86,-120.8,-66.28,-139.35,1
16442,0.48,2.13,-7.92,-134.95,-54.76,-137.52,1
16468,-0.87,2.46,-7.49,-145.32,-52.99,-134.42,1
16492,-2.57,2.92,-8.17,-164.83,-23.11,-122.52,1
16517,-2.71,4.16,-9.54,-184.77,22.74,-113.68,1
16542,-3.96,4.79,-7.91,-208.85,-1.22,-102.83,1
16567,-3.35,4.53,-5.01,-220.56,1.82,-98.81,1
16592,-4.72,5.09,-3.5,-220.25,65.97,-93.32,1
16617,-5.67,4.9,-1.8,-217.75,53.17,-75.88,1
16642,-6.4,5.31,-0.38,-207.75,25.67,-61.06,1
16666,-5.88,5.52,1.21,-193.55,37.62,-47.95,1
16692,-8.53,6.12,2.96,-170.07,48.47,-30.21,1
16717,-9.45,6.71,2.44,-146.78,4.26,-2.65,1
16741,-8.5,6.43,3.19,-126.41,-1.83,27.41,1
16766,-8.96,6.41,3.46,-108.67,-39.15,59.67,1
16791,-9,7.1,4.4,-92.76,-91.1,97.23,1
16816,-7.51,7.15,5.85,-75.8,-88.66,137.11,1
16840,-5.43,7.35,6.57,-54.65,-87.63,162.53,1
16865,-4.63,7.23,6.09,-35.68,-100.19,176.92,1
16891,-3.15,6.96,5.86,-24.89,-73.91,199.48,1
16915,0.38,7.06,7.24,-6.48,-103.91,225.7,1
16940,1.2,6.78,7.07,25.35,-232.56,241.37,1
16965,2.09,5.76,6.25,61.45,-246.22,245.7,1
16990,3.2,5.07,5.05,89.38,-143.3,240.4,1
17015,5.75,4.01,3.79,114.19,-119.33,232.41,1
17040,6.96,3.29,2.66,132.12,-199.45,219.91,1
17065,7.81,1.71,0.71,155.11,-184.88,207.23,1
17089,7.99,1.21,-1.01,164.07,-151.53,191.56,1
17115,10.57,0.36,-2.36,168.71,-132.62,168.2,1
17139,12.31,0.15,-3.18,177.85,-145.49,132.66,1
17165,12.54,-0.53,-4.05,180.35,-184.33,80.89,1
17190,14.79,-1.74,-5.23,176.63,-80.61,4.97,1
17214,15.68,-1.86,-6.43,170.96,20.42,-64.96,1
17240,14.06,-2.38,-6.88,163.28,-62.75,-122.52,1
17264,12.35,-2.67,-8.24,148.4,-58.72,-166.43,1
17290,11.33,-3.04,-9.09,132.49,-0.98,-195.94,1
17315,10.62,-1.74,-9.58,126.45,-45.98,-214.29,1
17339,9.49,-1.55,-11.76,122.18,-71.35,-224.48,1
17365,8.06,-1.5,-14.21,95.96,-63.54,-218.5,1
17389,6.25,-0.78,-15.9,45.96,-98.72,-204.6,1
17414,4.7,-0.94,-14.7,-14.77,-111.95,-194.84,1
17439,4.02,-1.54,-12.41,-66.23,-80.43,-195.88,1
17464,2.83,-1.55,-10.29,-94.65,-43.17,-198.26,1
17490,1.19,-0.58,-9.2,-109.95,-37.69,-193.07,1
17514,-0.18,0.86,-8.81,-122.57,-24.46,-179.41,1
17539,-0.99,2.03,-8.32,-133.24,-21.1,-164.17,1
17564,-1.66,2.88,-8.16,-144.83,-12.87,-148.56,1
17589,-2.42,3.58,-7.63,-157.51,-1.04,-134.23,1
17614,-2.52,4.64,-6.54,-168.67,9.87,-121.92,1
17639,-2.21,4.94,-5.34,-173,9.08,-116.24,1
17664,-2.55,5.51,-4.38,-174.16,5.42,-114.11,1
17688,-2.83,5.76,-4.72,-177.88,19.02,-114.29,1
17714,-3.39,6.03,-5.26,-192.02,25.42,-115.94,1
17738,-3.87,5.88,-2.92,-206.53,20.12,-116.73,1
17763,-5.61,5.99,-0.68,-206.23,30.42,-116.73,1
17789,-7.62,6.22,1.43,-195.99,72.37,-111.18,1
17813,-7.59,6.2,1.59,-176.96,76.89,-98.2,1
17838,-8.52,6.02,1.86,-159.28,34.02,-76.31,1
17863,-9.65,6.25,2.19,-143.43,-38.6,-42.95,1
17888,-10.4,6.3,2.51,-139.22,-74.82,1.44,1
17913,-10.63,6.78,3.54,-134.04,-81.71,50.83,1
17937,-8.93,6.13,5.9,-116.41,-97.69,92.41,1
17963,-8.14,6.06,6.91,-89.28,-144.21,121.44,1
17987,-6.36,5.99,7.44,-69.22,-150.92,147.05,1
18012,-4.54,6.37,9.69,-41.23,-156.53,167.72,1
18037,-2.37,6.36,10.43,-0.5,-166.77,182.41,1
18062,-0.33,6.29,10.71,43.65,-182.81,190.76,1
18088,0.53,5.88,9.91,86.45,-191.04,189.91,1
18112,2.39,5.72,8.21,116.75,-148.05,189.06,1
18137,3.88,5.29,6.04,136.63,-115.37,190.46,1
18162,4.67,5.4,5.55,154.68,-132.81,192.72,1
18187,7.86,4.6,4.08,171.63,-81.04,191.74,1
18212,7.51,4.08,3.01,191.02,-180.86,185.7,1
18237,7.44,3.6,1.8,213.58,-281.16,165.64,1
18262,6.98,3.04,0.44,236.02,-235.73,133.02,1
18286,10.41,1.55,-0.9,242.85,-124.76,82.29,1
18312,11.2,0.48,-3.12,246.57,-74.15,25.58,1
18336,11.34,-0.87,-5.48,237.24,-70.92,-34.9,1
18361,11.88,-1.85,-7.92,220.53,-1.16,-88.87,1
18387,10.72,-2.67,-9.72,195.23,-19.46,-123.44,1
18411,8.67,-1.84,-12.03,159.5,-66.41,-148.74,1
18437,7,-1.75,-13.51,117.36,-58.54,-160.27,1
18461,6.69,-0.72,-13.92,65.54,-56.16,-164.23,1
18486,6.44,-0.44,-12.84,26.33,-61.65,-170.76,1
18512,5.73,0.53,-11.9,0.05,-65,-177.95,1
18536,4.78,1.15,-11.34,-21.29,-93.72,-181.61,1
18561,3.44,1.68,-11.14,-37.63,-112.5,-186.85,1
18586,0.93,2.95,-12.72,-51.17,-64.21,-192.89,1
18611,0.02,3.98,-13.69,-56.05,-29.64,-179.66,1
18635,-1.86,3.98,-13.15,-83.24,-132.32,-152.22,1
18661,-2.85,3.42,-11.2,-122.63,-124.7,-120.88,1
18686,-2.45,3.43,-8.75,-145.5,-39.46,-105.27,1
18711,-2.28,3.56,-6.72,-159.28,-38.17,-102.04,1
18736,-3.02,3.83,-5.77,-162.39,-37.56,-101.73,1
18760,-4.23,4.44,-5.53,-168.18,-5.55,-99.11,1
18786,-4.83,5.13,-5.08,-174.16,21.89,-93.32,1
18811,-4.58,5.6,-3.93,-173.67,9.57,-84.9,1
18835,-5.76,5.95,-3.19,-175.13,-27.81,-79.35,1
18860,-5.69,6.31,-1.8,-182.21,18.84,-78.68,1
18885,-5.84,6.59,-1.29,-180.44,78.96,-77.53,1
18910,-7.44,6.72,-1.24,-178.73,35.97,-68.68,1
18935,-7.24,6.17,-0.57,-180.38,-7.32,-53.07,1
18960,-8.29,5.74,0.83,-182.51,-5.37,-38.38,1
18985,-8.96,5.41,2.1,-177.75,29.69,-22.59,1
19009,-9.37,5.68,3.19,-163.18,50.67,-2.28,1
19034,-10.7,5.53,3.47,-150.32,-25.25,24.36,1
19059,-11.24,5.59,5.16,-145.32,-28.48,56.13,1
19084,-8.54,5.81,6.3,-121.47,78.29,85.95,1
19109,-9.29,5.79,6.1,-98.61,-38.66,117.35,1
19134,-9.04,5.53,7.01,-78.24,-176.53,156.74,1
19159,-6.24,5.57,8.85,-26.23,-109.33,191.92,1
19183,-5.47,5.29,8.36,14.62,-148.11,221.5,1
19209,-2.97,4.89,6.77,48.04,-226.65,247.84,1
19234,-0.04,4.82,6.09,78.52,-216.59,264.79,1
19258,1.51,4.59,5.18,102.79,-232.93,266.62,1
19284,2.57,3.93,5.12,133.22,-244.88,258.63,1
19308,7.05,4.05,4.95,173.64,-187.2,252.04,1
19334,7.84,2.27,4.34,205.41,-293.29,232.23,1
19358,11.66,1.25,0.64,224.86,-287.68,179.67,1
19383,13.34,1.6,-2.12,224.13,-85.43,108.75,1
19409,16.14,0.99,-2.08,218.1,-55.61,33.82,1
19433,15.48,-0.24,-3.15,224.92,-103.97,-43.32,1
19459,15.07,-0.07,-5.74,214.62,7.31,-112.83,1
19483,13.38,-0.42,-5.94,208.28,15.67,-150.02,1
19508,10.95,-0.59,-6.68,195.11,-102.87,-177.65,1
19534,9.94,-0.67,-7.7,178.64,-61.71,-201.73,1
19558,7.86,-1.49,-8.21,166.39,-49.94,-221.73,1
19583,7.13,-1.7,-9.94,149.86,-49.15,-232.77,1
19608,5.19,-1.81,-11.44,132.67,-51.53,-235.02,1
19633,4.41,0.42,-13.51,99.99,-97.87,-231.12,1
19657,-1.7,-1.58,-15.99,64.07,-139.39,-216.18,1
19683,-3.9,-0.88,-16.59,6.88,-133.3,-184.17,1
19708,-5.25,-0.12,-16.74,-46.78,-66.04,-140.33,1
19733,-4.76,0.54,-14.81,-89.89,-58.72,-99.05,1
19758,-3.92,1.08,-12.4,-117.76,-80,-72.04,1
19782,-2.28,1.99,-10.62,-135.19,-41.04,-58.38,1
19808,-1.4,3.01,-9.94,-145.93,-27.5,-62.71,1
19833,-2.79,3.72,-9.37,-158.12,-68.05,-71.73,1
19857,-3.75,3.83,-8.61,-179.34,-35.61,-73.62,1
19883,-3.79,4.23,-8.08,-196.41,25.79,-74.84,1
19907,-4.41,4.29,-6.9,-210.07,2.62,-72.16,1
19932,-4.57,4.53,-5.49,-221.78,-10.25,-65.39,1
19956,-5.38,4.42,-4.55,-228.85,5.97,-60.15,1
19982,-6.84,4.84,-3.3,-241.17,-28.3,-54.78,1
20007,-7.46,4.17,-0.92,-252.27,-7.44,-45.39,1
20031,-7.96,4.33,0.63,-245.92,22.43,-29.84,1
20056,-9.51,4.47,1.75,-238.97,-47.93,-8.93,1
20081,-8.71,3.7,3.83,-229.58,-22.02,13.94,1
20106,-7.71,4.47,5.63,-206.66,52.8,32.35,1
20131,-7.71,4.84,7.04,-177.45,-31.1,54.67,1
20156,-7.84,5.37,8.48,-142.51,-124.82,83.33,1
20181,-6.94,5.85,8.8,-112.63,-79.52,114.97,1
20205,-5.37,5.87,11.7,-69.22,-63.72,131.8,1
20231,-4.22,6.59,11.66,-24.89,-125.92,143.08,1
20255,-2.73,6.71,11.82,24.32,-163.54,156.31,1
20280,-1.52,6.43,11.08,70.84,-160,164.73,1
20306,0.27,6.26,9.85,109.07,-148.11,169,1
20330,2.43,6.21,8.96,134.44,-136.83,165.64,1
20356,4.41,6.37,8.37,162.97,-102.93,157.29,1
20380,4.63,5.98,6.79,189.38,-123.66,149.55,1
20405,4.91,4.99,5.17,219.99,-134.21,141.56,1
20431,5.91,4.69,2.73,241.33,-158.17,133.63,1
20455,7.24,4.25,0.64,255.23,-172.87,118.88,1
20480,8.65,2.74,-1.09,271.94,-213.42,90.83,1
20505,6.87,2.26,-2.36,274.19,-192.08,39.55,1
20530,9.15,0.61,-4.37,271.63,-78.11,-9.78,1
20554,8.55,-0.37,-7.04,256.88,-43.17,-51.06,1
20580,9.79,-1.23,-8.83,238.4,-34.03,-91.18,1
20605,8.4,-1.57,-10.69,211.27,-31.47,-130.09,1
20629,7.84,-2.01,-12.22,176.21,-3.42,-158.93,1
20655,7.87,-1.43,-13.44,140.9,-19.33,-180.45,1
20679,6.29,-1.62,-15.23,103.22,-36.28,-199.72,1
20705,3.97,-1.83,-16.98,56.63,-18.11,-206.12,1
20730,2.17,-1.73,-17.83,4.8,-30.37,-199.9,1
20754,-0.15,-1.53,-17.59,-51.66,-83.84,-181.55,1
20780,-0.36,-0.76,-16.35,-108.3,-62.69,-159.29,1
20804,-0.89,0.28,-14.26,-149.65,-42.81,-144.66,1
20829,-1.07,1.99,-12.12,-174.34,-50.43,-134.05,1
20855,-0.98,3.42,-10.36,-181.05,-28.05,-134.84,1
20879,-1.94,3.95,-8.72,-179.95,-51.22,-127.04,1
20905,-3.14,4.26,-7.52,-187.82,-85.8,-111.73,1
20929,-5.02,4.09,-6.87,-208.24,-46.71,-100.51,1
20954,-3.92,4.27,-5.87,-225.86,41.09,-102.95,1
20979,-3.55,4.18,-4.39,-235.92,39.75,-109.78,1
21004,-5.92,4.1,-2.85,-239.64,-20.31,-112.22,1
21029,-5.95,4.17,-0.91,-240.62,55.24,-111.31,1
21054,-7.39,4.49,-0.39,-229.34,70.85,-103.68,1
21079,-9.53,4.39,0.35,-227.33,-12.87,-84.96,1
21103,-10.05,4.64,2.71,-219.71,33.96,-60.15,1
21129,-9.98,4.86,3.59,-190.62,58.04,-33.56,1
21154,-11.5,4.88,4.25,-164.1,-61.53,2.29,1
21178,-11.1,5.03,4.61,-144.71,-93.3,43.51,1
21204,-10.56,5.22,4.45,-129.22,-55.31,83.39,1
21228,-8.57,5.18,6.08,-114.71,-77.93,114.12,1
21253,-7.26,5.22,7.8,-87.08,-113.42,129.79,1
21278,-5.25,5.89,9.44,-53.18,-113.91,144.61,1
21303,-5.38,5.97,10.23,-18.61,-146.47,157.29,1
21328,-3.55,6.28,11.23,25.6,-153.36,171.74,1
21353,-1.59,6.11,11.79,72.97,-136.28,181.92,1
21378,0.45,5.99,10.82,115.9,-144.88,190.4,1
21403,2.05,5.58,9.03,151.88,-146.59,194.06,1
21428,4.11,5.39,7.66,177.97,-136.16,191.5,1
21453,4.46,5.11,6.39,205.6,-152.32,179.91,1
21478,4.32,3.48,5.77,234.07,-155.98,173.02,1
21503,5.13,2.51,2.41,254.74,-98.42,166.74,1
21527,7.45,2.08,-0.35,261.88,-57.87,162.66,1
21553,8.46,1.14,-1.91,263.22,-138.11,144.55,1
21577,7.73,0.43,-4.38,256.51,-177.14,101.86,1
21603,10.32,-0.58,-6.2,244.01,-22.57,52.29,1
21628,12.17,-0.58,-7.47,225.11,20.91,4.24,1
21652,11.58,-1.02,-10.02,197.55,-60.86,-43.01,1
21678,11.59,-1.24,-11.46,157.24,-71.53,-80.7,1
21702,9.56,-0.74,-13.26,105.78,-42.26,-106.55,1
21727,9.17,0.04,-13.23,54.19,-51.22,-124.05,1
21753,8.17,-0.13,-11.93,13.58,-70.37,-144.05,1
21777,6.91,0.57,-11.21,-12.15,-45.98,-163.74,1
21802,5.97,1.85,-11.63,-34.16,-18.78,-175.7,1
21827,5.32,2.69,-11.57,-57.69,-47.63,-185.45,1
21852,3.81,2.83,-11,-80.93,-32.44,-189.84,1
21876,3.07,3.87,-11.22,-95.01,-13.24,-195.27,1
21902,1.47,3.66,-10.73,-113.12,-40.86,-197.16,1
21927,0.13,4.32,-9.74,-133.97,-50.86,-195.45,1
21952,-1.54,5.01,-8.97,-144.4,-38.42,-192.28,1
21977,-2.03,5.23,-7.95,-160.56,-44.39,-186.49,1
22001,-2.99,4.86,-5.58,-182.94,-51.22,-181.79,1
22027,-4.2,4.8,-3.47,-190.32,-7.63,-182.04,1
22052,-5.48,4.94,-2.75,-185.62,45.79,-185.51,1
22076,-5.58,5.26,-1.57,-173.85,70.67,-179.84,1
22102,-6.99,5.27,-0.39,-151.29,15.54,-165.09,1
22126,-9.32,5.92,0.67,-137.02,-18.24,-144.35,1
22151,-9.84,5.96,1.35,-114.34,46.89,-115.15,1
22176,-11.48,6.49,0.67,-92.76,37.98,-80.51,1
22201,-13.97,6.02,0.35,-77.57,-71.47,-38.2,1
22226,-14.06,6.17,-0.44,-70.99,-65,13.82,1
22251,-13.95,6.04,-0.44,-81.41,-32.32,62.11,1
22276,-10.94,5.68,1.34,-87.15,-22.75,95.34,1
22300,-9.65,5.28,2.57,-83.79,-45.92,116.62,1
22325,-9.28,5.45,2.39,-79.77,-64.76,137.96,1
22351,-8.08,5.33,4.16,-72.45,-36.71,158.08,1
22375,-6.24,5.42,4.78,-56.9,-39.09,175.58,1
22400,-5.59,5.23,4.49,-35.74,-119.45,194.73,1
22425,-4.33,5.01,5.06,-16.17,-157.01,220.03,1
22450,-1.96,5.11,6.5,17.49,-140.12,235.83,1
22474,-0.72,4.78,7.54,64.13,-201.4,236.62,1
22500,-0.05,5.45,6.46,105.72,-211.28,234.06,1
22525,1.02,4.93,5.64,127.18,-115.67,231.68,1
22549,5.33,4.17,4.32,140.53,-68.42,236.01,1
22575,6.01,3.7,4.14,159.38,-129.39,236.43,1
22599,9.28,1.62,2.53,185.23,-141.28,216.98,1
22625,12.5,0.95,0.28,201.81,-83.97,166.98,1
22650,12.28,2.32,-0.4,215.35,-81.28,103.51,1
22674,15.5,1.35,-2.63,210.6,-11.16,25.34,1
22700,15.02,1.02,-4.89,201.08,65.79,-37.83,1
22724,14.2,0.52,-5.97,186.21,-14.46,-86.73,1
22749,12.06,0.31,-7.93,164.19,-55.06,-124.54,1
22775,10.77,0.12,-8.39,136.21,-7.81,-147.95,1
22799,10.51,-0.3,-8.48,116.69,-24.7,-163.38,1
22824,8.12,0.68,-10.99,96.39,-68.78,-178.32,1
22849,5.87,1.34,-13.18,57.06,-44.58,-186.06,1
22874,4.15,1.83,-13.68,10.54,-25.07,-186.3,1
22898,2.91,2.37,-13.61,-27.45,-34.58,-176.55,1
22924,1.01,3.59,-14.38,-66.78,-64.52,-162.71,1
22949,0.27,4.08,-13.05,-112.33,-55.98,-154.23,1
22974,0.08,4.89,-10.69,-144.52,-15.37,-148.74,1
22999,-1.33,5.74,-8.22,-158.3,-35.19,-136.18,1
23023,-1.26,6.97,-6.29,-162.51,-45.74,-127.4,1
23049,-1.09,8.15,-4.45,-161.84,-12.63,-126.85,1
23074,-1.63,8.31,-2.51,-149.1,-13.17,-136.55,1
23098,-2.8,8.59,-2.58,-138.06,6.95,-145.27,1
23124,-4.25,8.74,-2.53,-135.19,51.34,-146.37,1
23148,-5.87,8.33,-1.7,-127.88,20,-138.87,1
23173,-6.89,8.08,-0.99,-120.01,4.14,-122.71,1
23198,-7.63,7.9,0.32,-112.94,42.98,-105.76,1
23223,-7.66,7.87,0.57,-96.6,70.48,-88.26,1
23248,-8.41,7.51,-0.06,-87.57,1.7,-70.39,1
23272,-10.87,7.34,1.5,-90.07,-37.5,-48.44,1
23298,-10.48,7.13,2,-73.06,50.42,-22.34,1
23322,-11.11,7.08,1.72,-67.15,49.2,1.74,1
23347,-11.44,6.77,1.73,-63.18,-26.16,32.47,1
23371,-10.88,6.26,1.63,-58.43,-11.1,69.42,1
23397,-10.48,5.88,1.45,-61.96,-6.59,104.24,1
23422,-8.92,5.75,3.35,-56.54,-29.52,137.47,1
23446,-8.22,5.43,3.64,-43.06,-61.53,166.74,1
23472,-6.78,5.31,3.52,-36.54,-69.33,193.69,1
23496,-4.84,5.1,4.83,-21.41,-70.19,214.85,1
23521,-3.61,5.15,6.3,3.1,-134.15,233.63,1
23547,-2.2,4.81,6.76,37.24,-134.64,246.01,1
23571,0.74,4.76,6.72,65.47,-83.3,254.85,1
23596,1.39,4.04,6.44,94.19,-126.04,259.97,1
23620,3.87,3.05,5.81,125.29,-140.19,265.58,1
23646,5.42,1.48,5.94,166.45,-131.04,267.29,1
23671,8.38,-0.22,3.82,210.23,-147.44,256.5,1
23696,10.7,-1.61,0.98,242.3,-216.28,218.94,1
23721,11.88,-1.57,-2.9,251.14,-146.1,157.47,1
23745,13.62,-2.74,-5.15,239.56,-82.44,78.45,1
23771,14.74,-3.69,-8.05,214.13,-10.37,-3.44,1
23795,14.84,-4.45,-9.24,186.81,-42.63,-68.68,1
23820,12.23,-2.75,-13.01,132.73,-93.97,-125.02,1
23846,10.47,-1.77,-14.14,64.68,-1.77,-157.28,1
23870,9.25,-1.55,-13.67,8.95,-33.91,-173.99,1
23896,7.65,-0.44,-12.84,-32.94,-61.59,-185.09,1
23920,6.35,1.65,-12.78,-69.04,1.52,-187.34,1
23945,5.52,3.12,-11.98,-95.07,-11.22,-184.78,1
23971,4.23,4.63,-11.03,-117.76,-60.86,-179.11,1
23995,3.86,5.05,-9.24,-133.97,-37.93,-178.26,1
24020,3.06,5.56,-8.08,-134.58,-24.09,-178.38,1
24045,1.86,7.06,-7.36,-131.84,-52.26,-173.87,1
24070,-0.36,7.29,-6.55,-139.04,-59.52,-170.76,1
24094,-1.48,7.48,-6.09,-139.89,-16.28,-170.57,1
24120,-2.48,7.7,-6.04,-141.96,-16.65,-165.76,1
24145,-3.85,7.83,-5.15,-155.56,-35.13,-159.84,1
24169,-5.02,7.34,-3.93,-173.55,10.67,-157.71,1
24195,-4.35,6.77,-2.08,-173.43,58.04,-159.29,1
24219,-6.72,6.65,-1.65,-176.6,37.31,-157.4,1
24244,-7.12,6,-0.51,-178.73,70.36,-150.63,1
24270,-7.64,5.47,0.83,-175.38,118.35,-149.6,1
24294,-8.48,4.53,1.59,-162.08,99.57,-148.56,1
24320,-11.03,4.13,2.57,-149.28,73.35,-135.7,1
24344,-12.78,4.14,3.85,-126.05,46.76,-108.01,1
24369,-13.29,4.59,4.52,-106.47,49.39,-66.61,1
24394,-14.22,4.24,5.46,-77.21,50.73,-18.38,1
24419,-14.45,4.35,5.21,-50.87,-7.44,31.07,1
24444,-13.8,4.47,4.81,-31.9,-45.74,77.84,1
24469,-12.13,4.68,5.2,-18.79,-49.39,120.4,1
24494,-10.82,4.61,4.92,-9.4,-68.6,152.96,1
24518,-9.52,4.73,4.42,-3.67,-83.17,181.86,1
24543,-8.02,4.33,4.77,1.39,-85.37,204.42,1
24569,-4.5,4.81,5.97,7.79,-66.65,223.51,1
24593,-3.72,4.69,6.8,27.18,-110.73,235.09,1
24618,-1.69,4.62,7.36,57.91,-140,241.92,1
24643,0.38,4.44,7.09,90.72,-115.43,244.91,1
24668,1.94,4.23,6.87,119.5,-120.98,243.63,1
24692,2.96,4.2,6.38,144.44,-123.11,236.01,1
24718,4.41,3.21,4.82,173.4,-83.72,227.53,1
24743,7.57,2.87,4.04,194.92,-33.42,216.07,1
24767,13.65,-1.5,0.41,210.9,-107.26,186.8,1
24793,8.9,2.22,-2.82,220.47,-149.27,124.61,1
24817,14.15,1.63,-4.75,207.49,15.61,52.84,1
24842,14.74,1.03,-4.8,196.02,12.86,-7.4,1
24868,13.55,-0.6,-6.16,183.83,-136.53,-61.61,1
24892,11.17,0.04,-10.12,156.51,-84.09,-104.9,1
24918,10.28,2.85,-12.72,116.63,-67.99,-129.23,1
24942,5.66,2.36,-13.95,52.67,-127.26,-143.07,1
24967,5.15,3.05,-13.67,-5.38,-64.09,-144.48,1
24992,4.15,3.89,-13.56,-41.48,-27.81,-136.43,1
25017,1.73,4.66,-13.66,-79.89,-102.63,-125.15,1
25042,0.26,4.53,-12.48,-122.82,-68.54,-115.21,1
25067,-0.27,4.99,-10.61,-156.11,-21.16,-105.03,1
25092,-0.93,6.21,-8.82,-175.5,-37.75,-97.53,1
25117,-1.92,6.88,-7.1,-183.12,-57.08,-87.16,1
25142,-3.65,7.91,-6.39,-199.03,-48.24,-80.33,1
25167,-3.49,8.88,-4.13,-210.86,-7.99,-71.61,1
25191,-2.96,8.64,-0.94,-209.1,-2.32,-76.06,1
25217,-2.82,8.88,1.01,-196.05,8.35,-82.59,1
25241,-3.96,9.56,2.49,-183.85,44.45,-83.68,1
25266,-4.38,8.71,3.73,-161.9,35.42,-82.95,1
25291,-6.31,8.43,3.96,-143.36,0.3,-73.07,1
25316,-7.26,8.42,4.58,-131.96,20,-56.31,1
25341,-6.79,8.04,7.49,-107.76,54.14,-40.64,1
25365,-7.4,8.25,7.94,-70.87,27.98,-24.23,1
25391,-8.01,8.77,8.75,-47.76,-15.49,-4.9,1
25415,-8.19,8.24,8.25,-16.05,30.97,21.44,1
25440,-7.99,7.71,7.62,5.84,25.24,48.21,1
25465,-8.47,7.6,7.6,29.26,-47.63,75.58,1
25490,-8.17,6.99,6.78,46.33,-61.53,101.38,1
25515,-6.94,6.61,5.95,60.84,-4.52,127.23,1
25539,-6.97,6.22,4.75,65.72,-35.92,158.69,1
25564,-5.01,5.89,4.01,69.99,-72.99,188.02,1
25589,-3.48,5.45,4.03,78.77,-61.65,208.94,1
25614,-2.14,4.88,3.85,87.73,-78.72,224.61,1
25639,-0.94,4.07,4.1,103.95,-103.48,240.52,1
25664,0.54,3.15,4.16,125.96,-112.2,254.42,1
25689,1.59,2.11,4.12,151.82,-106.22,263.45,1
25713,2.89,-0.32,3.1,179.62,-73.78,267.72,1
25739,8.61,-1.18,2.3,199.5,-3.97,264.91,1
25764,12.46,-3.69,2.72,222.97,-169.88,229.3,1
25788,15.47,-3.38,-1.68,244.5,-91.83,143.39,1
25814,17.47,-4.04,-5.48,236.02,43.04,53.14,1
25838,17.04,-3.09,-8.85,198.28,-14.58,-27.04,1
25864,16.3,-2.35,-11.05,151.69,-33.17,-94.05,1
25888,14.83,-2.76,-10.93,98.95,-37.56,-147.95,1
25913,13.43,-2.53,-11.22,51.82,-20.31,-192.52,1
25939,10.22,-1.81,-11.5,15.72,4.39,-218.32,1
25963,8.21,-0.38,-12.02,-19.46,-25.98,-218.01,1
25988,5.85,1.02,-11.4,-56.05,-52.44,-200.63,1
26013,4.36,2.4,-11.67,-82.33,-33.6,-185.27,1
26038,3,3.28,-11.25,-106.17,-21.47,-171.49,1
26063,1.78,5.12,-10.76,-132.45,-35.43,-156.79,1
26088,0.9,6.22,-9.48,-152.75,-27.87,-140.7,1
26113,1.2,7.32,-7.73,-165.32,-18.72,-132.95,1
26138,1.73,7.87,-5.78,-169.4,-42.08,-139.84,1
26163,-0.54,8.32,-4.14,-176.84,-39.82,-150.21,1
26187,-0.57,8.59,-3.53,-174.1,25.3,-161.79,1
26213,-1.76,8.74,-2.08,-178.43,-1.41,-164.6,1
26238,-2.15,8.65,0.33,-178,-17.87,-165.45,1
26262,-4.17,8.17,2.33,-163.91,10.42,-171,1
26288,-4.76,7.67,3.24,-140.8,43.53,-169.54,1
26312,-6.48,7.58,3.53,-121.72,33.35,-159.72,1
26337,-8.14,6.91,4.02,-106.23,9.08,-146,1
26363,-9.59,6.63,5.47,-83.98,25.91,-121.18,1
26387,-10.66,6.51,4.91,-54.77,34.63,-90.7,1
26412,-11.89,6.59,4.56,-41.9,9.2,-62.46,1
26436,-12.16,6.46,5.01,-33.12,42.68,-33.62,1
26462,-12.63,6.45,4.72,-20.74,54.39,-1.25,1
26487,-11.81,5.83,2.99,-15.93,-16.04,31.38,1
26511,-10.69,5.29,3.48,-15.93,-17.02,60.1,1
26537,-9.54,5.27,2.86,-17.51,16.34,89.79,1
26561,-11.62,4.8,2.95,-22.76,-26.89,122.84,1
26586,-9.49,4.52,3.66,-26.6,-57.93,160.89,1
26610,-7.92,4.08,5.71,-18.06,-58.85,197.78,1
26636,-5.24,4.05,6.97,-0.13,-62.87,225.28,1
26661,-3.69,4.12,6.97,25.35,-90.8,250.52,1
26685,-2.49,3.6,7.04,53.52,-151.34,271.37,1
26711,0.28,3.27,6.89,85.05,-125.55,283.69,1
26735,1.39,2.52,7.34,116.27,-120.67,290.95,1
26760,2.18,1.48,5.58,150.17,-146.1,293.75,1
26786,4.45,0.07,4.39,172.12,-82.93,284.61,1
26810,12.88,-2.43,4.75,209.01,24.57,261.74,1
26835,12.5,1.12,2.55,212.55,-144.39,199.73,1
26860,14.55,0.49,-0.22,219.99,-103.54,118.75,1
26885,16.97,-0.11,-1.65,217.42,77.49,39.36,1
26910,16.29,-1.6,-2.02,213.83,-10.8,-23.07,1
26935,15.91,-2.45,-4.89,209.92,-60.92,-80.82,1
26960,13.86,-1.55,-8.31,189.68,-22.87,-128.44,1
26985,12.05,-0.2,-11.13,139.93,-28.72,-158.07,1
27010,10.21,-0.22,-12.62,85.35,-40.55,-175.33,1
27035,7.78,-0.15,-13.9,38.83,-42.87,-176.24,1
27060,5.01,1.71,-15.61,-17.57,-70.49,-167.71,1
27085,4.35,2.69,-13.88,-81.48,-44.7,-153.99,1
27110,4.11,3.16,-12.35,-116.72,-17.87,-145.88,1
27135,2.78,4.75,-11.12,-143.36,-59.76,-140.15,1
27159,1.22,6.05,-9.14,-166.23,-58.85,-134.29,1
27185,-0.02,7.26,-7.8,-179.34,-27.08,-129.29,1
27209,-0.19,8.27,-6.24,-188.18,-13.97,-125.94,1
27234,-0.09,8.85,-3.38,-195.56,-11.53,-125.82,1
27260,-1.46,9.15,-1.29,-185.5,-22.75,-130.02,1
27284,-2.39,9.43,0.5,-180.8,10.67,-140.27,1
27309,-1.22,9.38,4.05,-153.79,18.84,-146.49,1
27334,-2.88,7.86,6.63,-122.02,-41.28,-158.13,1
27359,-6.26,7.91,4.22,-90.44,-9.39,-154.96,1
27384,-7.24,8.21,2.24,-79.16,94.38,-142.83,1
27409,-8.81,8.6,2.02,-73.49,74.93,-121.67,1
27434,-11.57,7.81,3.16,-66.72,-16.53,-81.24,1
27458,-11.8,7.26,4.91,-46.78,-2.38,-34.9,1
27484,-12.73,7.01,4.43,-25.07,9.87,16.99,1
27508,-12.52,6.45,4.56,-10.68,-41.89,69.61,1
27533,-11.26,6.07,4.38,6.57,-65.92,117.96,1
27558,-9.98,5.77,3.62,14.5,-88.72,156.92,1
27583,-8.14,5.4,3.78,17.67,-85.19,184.24,1
27608,-6.26,5.15,3.78,20.23,-79.21,208.2,1
27632,-3.82,4.93,4.17,24.01,-92.26,229.24,1
27658,-2.36,4.43,4.69,33.28,-108.72,244.06,1
27683,0.25,4.29,6.21,49.26,-98.11,254.91,1
27707,1.64,3.29,7.55,78.34,-118.66,261.07,1
27733,3.71,2.63,7.92,118.95,-128.78,260.03,1
27757,8.06,1.48,6.73,154.01,-64.58,240.09,1
27782,10.88,1.62,5.07,186.08,-55.25,206.62,1
27807,13.18,1.1,3.15,205.11,-82.87,150.28,1
27832,13.75,0.72,0.87,215.96,-14.15,83.63,1
27857,14.54,0.49,-1.06,214.74,5.79,24.36,1
27882,14.02,0.13,-3.57,204.8,-28.85,-28.38,1
27907,13.5,-0.75,-5.5,186.63,-19.03,-77.83,1
27931,12.62,-0.89,-7.92,161.45,8.84,-114.6,1
27957,10.34,-0.62,-9.94,134.25,-45.49,-137.4,1
27982,9.26,0.4,-12.3,88.04,-74.82,-153.99,1
28006,6.42,0.21,-14.2,25.66,-56.22,-160.88,1
28032,4.79,0.96,-15.03,-35.07,-7.02,-161.85,1
28056,4.35,2.22,-14.7,-84.04,-16.89,-155.7,1
28081,3.75,3.35,-13.43,-133.55,-33.17,-135.76,1
28106,3.29,4.07,-11.38,-172.33,-25.07,-125.45,1
28131,2.82,5.29,-9.61,-198.97,-18.48,-130.76,1
28156,1.6,5.92,-8.13,-218.42,-20.37,-139.84,1
28181,0,6.35,-6.1,-237.75,-18.72,-133.93,1
28206,0.02,7.29,-3.56,-247.27,-17.08,-132.89,1
28230,-0.39,7.59,-1.32,-252.75,-11.41,-139.35,1
28256,0.28,7.09,1.47,-245.31,-32.93,-139.84,1
28281,-2.85,7.21,4.69,-241.6,-59.64,-136.79,1
28306,-4.17,7.29,7.95,-212.08,10.24,-136.61,1
28331,-5.22,7.68,9.42,-166.96,51.46,-124.48,1
28355,-6.9,8.53,12.38,-114.89,-22.02,-102.83,1
28381,-7.33,8.64,13.66,-56.9,-33.24,-86.92,1
28405,-8.44,8.78,12.3,-6.11,-4.7,-62.46,1
28430,-10.04,8.81,10.99,24.68,-4.82,-34.84,1
28455,-10.59,8.17,10.04,48.4,-12.69,-2.65,1
28480,-11.18,7.55,8.55,68.95,-22.87,37.29,1
28505,-10.09,6.85,7.94,82.91,-43.05,76.8,1
28529,-8.52,6.2,7.34,97.18,-43.42,104.12,1
28555,-7.52,5.81,5.92,103.65,-36.28,123.94,1
28580,-6.15,5.5,4.77,101.75,-29.21,140.77,1
28604,-4.82,5.38,4.26,96.88,-17.02,155.09,1
28630,-4.08,5.12,4.28,95.54,-27.44,173.87,1
28654,-2.31,4.79,4.5,98.22,-31.47,189.97,1
28679,-1.34,4.21,4.28,104.44,-26.47,200.76,1
28703,-0.17,3.53,3.45,108.71,-26.53,212.11,1
28729,1.89,3.19,3.7,115.84,-24.94,223.45,1
28754,3.14,2.24,4.28,131.82,-61.47,228.51,1
28778,5.92,0.9,3.83,155.66,-24.27,224,1
28804,8.71,-0.27,3.31,181.33,-49.58,208.94,1
28828,10.02,-1.02,1.2,201.75,-62.38,181.56,1
28854,13.87,-1.54,-1.27,209.8,12.37,135.34,1
28879,15.48,-1.33,-3.41,206.81,17.01,76.25,1
28903,15.06,-1.36,-6.52,184.99,-36.1,9.55,1
28929,14.74,-1.05,-9.61,150.53,25.85,-50.39,1
28953,14.33,-0.99,-10.63,109.44,33.9,-90.15,1
28978,12.31,-1.86,-10.61,60.6,-41.65,-118.87,1
29003,10.46,-0.1,-11.72,16.94,-22.32,-143.44,1
29028,9.66,1.87,-13.2,-30.13,6.4,-157.83,1
29053,8.14,1.87,-11.58,-75.87,-29.64,-158.81,1
29078,7.06,3.12,-10.24,-105.44,-28.97,-153.81,1
29103,5.54,4.74,-9.56,-124.28,-14.03,-157.34,1
29127,5.69,5.89,-8.18,-144.28,-9.88,-158.13,1
29153,4.87,6.43,-6.3,-155.13,-23.05,-160.15,1
29178,3.72,7.82,-5.54,-155.32,-23.78,-170.51,1
29202,2.26,8.9,-4.47,-163.18,-3.6,-182.1,1
29228,1.18,8.96,-1.92,-159.34,-8.97,-194.78,1
29252,-1.1,9.35,-0.03,-150.07,-14.88,-203.87,1
29277,-3.22,9.32,0.51,-132.27,37.8,-203.68,1
29303,-4.07,8.49,0.47,-121.9,47.86,-197.34,1
29327,-7.93,8.06,0.68,-118.06,-15.49,-182.52,1
29352,-8.56,7.87,1.81,-115.38,-1.28,-153.68,1
29377,-10.61,7.32,3.18,-107.02,11.76,-120.33,1
29402,-11.06,7.05,4.61,-86.6,36.46,-75.27,1
29426,-12.31,7.41,4.9,-68.24,-6.41,-28.2,1
29452,-13.17,7.67,4.65,-57.94,-36.83,12.72,1
29477,-12.99,7.19,5.84,-52.51,-23.36,57.66,1
29501,-12.22,6.37,7.7,-29.95,-33.48,99.73,1
29526,-11.32,6.07,7.7,-5.68,-53.36,139.42,1
29551,-9.33,5.76,7.41,11.45,-55.43,178.26,1
29576,-6.88,5.19,7.75,31.57,-66.16,204.55,1
29600,-4.57,4.99,6.9,44.38,-63.78,217.65,1
29626,-1.94,4.65,7.21,50.23,-49.7,231.25,1
29651,-0.22,4.26,8.25,66.88,-67.87,235.09,1
29675,3.1,3.94,8.63,95.17,-55.61,226.8,1
29701,4.34,3.41,8.96,127.73,-91.22,215.22,1
29725,6.76,2.55,8.75,163.77,-77.14,190.15,1
29750,10.71,1.99,6.59,196.51,-24.03,150.4,1
29776,10.96,1.92,4.09,209.5,-42.81,105.7,1
29800,13.6,1.55,2,216.51,-25.13,55.95,1
29825,13.13,1.14,-0.41,216.75,-8.48,4.67,1
29850,13.78,0.37,-1.72,214.01,-23.3,-43.2,1
29875,12.39,0.27,-3.33,209.01,-50.37,-85.63,1
29899,11.78,0.06,-5.95,199.99,-50.06,-119.35,1
29925,9.89,-0.16,-8.77,179.8,-85.8,-139.17,1
29950,6.93,-0.28,-11.35,144.86,-113.42,-152.34,1
29974,5.96,0.58,-13.79,107.67,-52.87,-147.83,1
30000,2.45,0.68,-15.54,59.44,-99.82,-135.45,1
30024,1.23,1.23,-16.28,-0.62,-124.7,-112.95,1
30049,0.3,1.68,-16.43,-53.06,-72.32,-92.95,1
30075,-0.17,2.12,-15.89,-100.62,-72.38,-78.14,1
30099,-0.51,2.62,-13.89,-142.02,-89.82,-63.01,1
30124,-1.35,4.05,-12.36,-170.25,-83.48,-60.21,1
30149,-2.77,6.14,-11.7,-200.13,-53.17,-62.4,1
30174,-2.64,6.64,-8.8,-239.16,-40.31,-56.92,1
30199,-2.66,6.84,-4.34,-268.67,-35.13,-71.06,1
30224,-3.32,6.29,-0.84,-263.49,27.01,-96.98,1
30249,-6.04,6,0.16,-251.66,29.75,-108.2,1
30273,-6.21,6.08,3.62,-239.58,29.2,-105.88,1
30299,-7.38,5.86,5.71,-207.63,18.17,-100.51,1
30323,-9.51,6.55,6.58,-176.35,-17.08,-82.59,1
30348,-10.85,7.33,8.37,-145.13,-28.85,-51.98,1
30374,-8.7,8.61,9.54,-108,69.57,-31.25,1
30398,-9.15,7.63,8.05,-67.15,52.8,-21.61,1
30423,-9.85,8.28,6.92,-46.54,-48.72,-0.51,1
30448,-9.86,7.69,8.3,-19.22,-32.63,32.29,1
30473,-10.08,7.76,7.46,3.71,-39.82,72.05,1
30498,-9.86,7.43,6.51,13.89,-74.09,107.66,1
30522,-7.48,7.17,5.93,21.39,-51.89,130.46,1
30548,-6.56,7.07,5.59,18.22,-61.83,157.11,1
30572,-5.14,6.49,6.33,22.18,-88.78,179.79,1
30597,-2.27,6,7.65,40.23,-59.82,196.01,1
30621,-0.88,5.33,7.46,64.8,-77.14,207.72,1
30647,0.69,5.03,6.73,91.88,-126.22,213.33,1
30672,0.27,4.76,5.13,112,-113.97,212.9,1
30696,0.66,4.42,4.41,121.51,-86.28,212.9,1
30722,5.19,3.34,4.1,129.01,-7.44,216.31,1
30746,7.65,2.51,4.32,137.97,-35.19,212.41,1
30771,11.64,0.45,2.08,160.84,-83.84,185.28,1
30797,10.46,2.87,1.96,173.1,-50.74,129.79,1
30821,12.71,1.97,1.56,185.72,16.03,71.5,1
30846,13.9,1.51,0.97,198.46,-2.38,16.38,1
30871,14.27,0.8,-0.1,208.83,-8.42,-32.53,1
30896,13.58,-0.37,-1.94,213.83,-8.54,-75.15,1
30920,12.82,-0.22,-4.86,205.78,-10.43,-107.4,1
30946,11.42,-0.12,-7.32,184.07,-41.96,-130.76,1
30971,10.4,-0.56,-9.44,151.08,-53.3,-150.88,1
30995,8.82,-0.83,-11.53,108.77,-29.39,-161.55,1
31021,6.65,-0.4,-14.15,62,-46.65,-169.23,1
31045,5.62,1.02,-15.34,9.8,-37.99,-168.87,1
31070,3.67,2.17,-15.48,-43.61,-56.65,-162.65,1
31096,1.95,2.9,-13.47,-95.13,-74.39,-155.02,1
31120,1.54,3.61,-11.31,-122.76,-37.63,-145.09,1
31146,1.01,4.99,-9.95,-140.93,-44.58,-142.1,1
31170,-1.21,5.72,-8.7,-160.62,-49.88,-142.1,1
31195,-1.83,6.48,-7.83,-171.35,-13.85,-129.78,1
31220,-2.32,8.01,-6.83,-180.07,-23.78,-122.89,1
31245,-3.52,8.08,-5.65,-201.23,-30.49,-130.88,1
31270,-4.08,7.24,-3.82,-212.57,24.2,-132.1,1
31295,-7.77,7.27,-0.87,-210.13,1.03,-124.66,1
31320,-7.37,7.04,2.37,-198,12.43,-108.01,1
31344,-7.35,7,3.93,-165.8,26.21,-85.94,1
31370,-9.09,7.1,6.26,-129.95,-68.11,-57.53,1
31395,-9.85,7.9,8.22,-87.21,-61.89,-30.39,1
31419,-11.02,8.91,6.79,-50.99,-0.8,-6.31,1
31444,-10.6,9.16,5.15,-29.95,-8.72,21.13,1
31469,-11,8.6,5.14,-19.22,-46.41,49.91,1
31494,-10.95,8.21,4.28,-10.26,-34.76,86.07,1
31518,-9.92,7.62,4.29,-9.04,-55.31,124.91,1
31543,-7.88,7.11,5.07,0.66,-61.89,149.67,1
31569,-6.98,6.41,4.68,10.72,-55.67,171.92,1
31593,-5.11,5.87,4.9,15.78,-63.48,196.5,1
31618,-3.28,5.05,5.7,28.28,-73.11,213.75,1
31643,-1.39,4.74,5.76,39.32,-68.36,225.4,1
31668,1.11,4.36,7.19,53.46,-59.94,237.29,1
31693,4.01,3.27,8.64,80.54,-68.11,233.51,1
31717,8.09,2.54,8.74,113.16,8.84,212.9,1
31743,10.23,2.51,7.82,144.62,-66.41,182.17,1
31767,11.17,2.35,5.58,163.46,-79.88,141.86,1
31792,13.96,2.12,3.94,177.79,15.97,90.22,1
31817,13.85,1.6,1.74,183.1,-1.41,40.58,1
31842,13.56,1.92,-1.4,179.56,-14.03,-4.97,1
31867,12.04,2.28,-3.85,157.97,4.63,-41.61,1
31892,10.79,2.37,-5.13,131.94,3.84,-67.95,1
31917,9.62,2.28,-5.72,108.52,-10.31,-80.27,1
31941,8.36,1.85,-5.98,87.91,-33.72,-82.83,1
31967,7.93,2.4,-6.81,73.89,-28.11,-82.95,1
31992,6.44,2.57,-8.67,52.73,-34.27,-85.88,1
32016,6.5,3.11,-9.26,21.02,-29.64,-82.83,1
32041,5.54,4.05,-9.83,-5.07,-37.08,-77.4,1
32065,4.86,5.53,-10.69,-31.84,-46.59,-75.03,1
32091,3.73,6.09,-10.68,-64.22,-29.27,-71.55,1
32115,3.73,6.88,-10.03,-87.57,-28.54,-61,1
32140,3.69,7.89,-9.23,-104.04,-56.28,-54.17,1
32166,3.31,8.77,-7.64,-119.52,-61.53,-53.87,1
32190,2.39,9.48,-6.24,-129.46,-49.58,-56.31,1
32215,2.31,10.38,-4.46,-130.01,-50.61,-58.26,1
32240,2.13,10.89,-3.1,-129.04,-58.6,-67.77,1
32265,1.65,10.85,-1.93,-127.51,-27.93,-80.39,1
32290,0.4,10.76,-1.3,-125.44,-12.69,-92.65,1
32315,-0.2,10.06,0.76,-121.72,-27.93,-100.21,1
32340,-1.84,9.46,2.03,-109.65,-31.59,-101.79,1
32364,-3.3,8.99,1.53,-98.12,-2.32,-96.85,1
32390,-4.1,9.56,1.63,-93.61,4.45,-82.65,1
32414,-5.05,9.91,3.72,-92.21,-22.87,-65.7,1
32439,-6.17,9.62,5.9,-72.02,-19.94,-46.06,1
32464,-7.7,9.66,5.85,-49.77,-8.85,-20.09,1
32488,-7.22,9.54,6.18,-29.59,-1.04,3.63,1
32514,-7.26,9,5.76,-16.54,-4.64,29.06,1
32538,-6.69,8.76,5.87,-4.34,-15.74,53.88,1
32563,-6.08,8.52,6.11,5.6,-15.55,76.44,1
32587,-5.54,7.79,6.71,16.94,-11.1,97.17,1
32612,-4.2,7.09,6.24,29.62,-5.37,117.84,1
32638,-3.01,6.54,6.45,38.89,-6.65,131.07,1
32662,-1.64,6.14,6.44,51.21,0.61,139.73,1
32687,-0.77,5.57,6.17,62.97,10.54,145.83,1
32711,0.62,5.05,5.85,75.54,21.21,153.69,1
32737,2.35,4.92,5.03,83.22,14.45,159.42,1
32762,3.51,3.95,4.69,89.93,12.92,152.72,1
32786,6.74,3.93,3.39,99.01,37.86,138.45,1
32811,6.76,3.35,2.61,101.45,27.43,120.64,1
32836,8.82,3.38,1.03,103.1,40.61,97.78,1
32861,8.31,3.2,-0.61,96.75,26.21,78.39,1
32885,9.18,3.26,-1.69,84.56,38.78,60.16,1
32911,9.8,3.44,-2.35,68.16,48.59,45.64,1
32936,10.64,3.69,-1.71,57.85,35,25.64,1
