t_ms,ax,ay,az,gx,gy,gz,label
5,-0.82,-0.21,10.59,-18.98,14.51,26.13,2
29,-0.76,-0.23,10.71,-18.06,3.9,22.9,2
54,-1.15,-0.33,10.92,-14.46,0.97,21.25,2
79,-1.15,-0.5,10.96,-9.59,3.59,20.95,2
103,-1.12,-0.28,10.84,-5.01,14.75,15.46,2
128,-1.16,-0.21,10.86,-1.72,17.8,11.32,2
152,-1.48,-0.33,10.65,-0.99,3.59,10.89,2
177,-1.64,-0.32,10.43,-0.07,3.72,10.03,2
201,-1.6,-0.09,10.52,2.18,8.65,6.86,2
227,-1.51,-0.01,10.3,4.44,4.69,5.46,2
252,-1.73,-0.09,9.96,4.99,0.36,5.03,2
276,-1.85,-0.21,9.44,3.22,6.15,3.51,2
301,-1.84,-0.17,9.31,0.48,11.09,2.78,2
325,-1.79,-0.06,9.52,-2.82,7.25,3.82,2
350,-1.79,-0.12,9.62,-5.62,0.97,2.84,2
375,-1.79,-0.13,9.6,-5.56,1.22,1.38,2
399,-1.71,-0.01,9.53,-6.48,6.22,-0.94,2
424,-2.01,-0.27,9.8,-9.46,7.07,-1.79,2
448,-2.06,-0.34,10.17,-11.9,1.22,-0.51,2
473,-2.11,-0.08,10.55,-10.13,1.03,-0.57,2
497,-1.94,-0.05,10.67,-6.29,1.22,-1.92,2
522,-2.25,-0.26,10.82,-3.12,-1.96,-1.67,2
547,-2.35,-0.28,10.86,1.39,-2.81,0.16,2
571,-2.05,-0.15,10.49,4.07,-2.32,-0.03,2
596,-2.07,-0.16,10.28,4.38,2.01,-3.38,2
620,-2.33,-0.21,10.48,3.95,-2.38,-4.42,2
645,-2.66,-0.09,10.28,4.93,-1.53,-3.26,2
669,-2.56,0.02,10.38,6.27,0.79,-0.94,2
694,-2.56,0.04,10.35,7.73,-3.05,0.64,2
719,-2.53,0.02,10.18,8.95,-7.32,2.29,2
743,-2.47,-0.05,9.89,9.56,-2.5,5.34,2
768,-2.07,-0.21,9.49,8.83,-10.43,7.66,2
792,-2.1,-0.26,8.97,3.52,-20.25,8.08,2
817,-1.92,-0.17,8.79,-0.56,-14.52,8.08,2
841,-2.23,-0.21,8.34,-5.74,-7.08,6.93,2
866,-1.79,-0.19,8.2,-9.95,1.7,6.86,2
891,-1.64,-0.28,8.22,-15.01,-1.16,4.36,2
915,-1.59,-0.19,8.05,-19.77,8.65,-0.94,2
940,-2.08,-0.23,7.78,-24.59,11.09,-4.9,2
965,-2.56,-0.44,7.99,-32.33,13.17,-3.68,2
990,-2.7,-0.62,8.57,-39.04,12.07,-1.49,2
1015,-2.89,-1.25,9.45,-42.15,17.01,1.25,2
1039,-2.25,-1.56,10.62,-44.16,19.87,1.8,2
1064,-1.98,-1.66,12,-39.34,6.52,-0.45,2
1088,-2.34,-1.99,12.69,-29.28,-2.75,-1.61,2
1113,-2.45,-1.89,12.91,-18.91,-7.2,-0.27,2
1138,-2.19,-1.62,12.84,-6.35,3.78,-2.47,2
1163,-2.4,-1.34,12.12,3.34,3.84,-6.18,2
1188,-2.73,-1.23,11.5,8.04,4.26,-7.1,2
1212,-3.09,-1,11.07,10.11,6.4,-6.86,2
1237,-3.08,-0.82,10.82,11.88,5.06,-4.72,2
1261,-3.01,-0.88,10.41,13.22,2.74,-2.34,2
1286,-2.81,-0.9,10.22,14.93,2.98,-1.06,2
1310,-2.57,-0.98,10.09,17.73,6.95,-1.18,2
1336,-2.49,-1.04,9.76,19.8,11.09,-1.55,2
1361,-2.4,-1.12,9.24,19.32,11.52,-0.51,2
1385,-2.38,-0.97,8.86,17.55,13.17,0.03,2
1410,-2.43,-0.86,8.35,14.07,12.37,0.28,2
1434,-2.38,-0.76,7.96,7.55,10.79,-0.21,2
1459,-2.66,-0.9,7.84,-0.87,9.2,0.4,2
1483,-2.5,-1.02,8.2,-10.68,3.84,0.71,2
1508,-2.57,-1.04,9.26,-17.82,-3.66,0.52,2
1533,-2.84,-1.2,10.32,-19.22,-1.35,0.28,2
1558,-2.67,-0.91,11.4,-14.83,-1.04,-0.21,2
1583,-2.73,-0.94,12.07,-6.41,-1.04,-2.28,2
1607,-2.94,-1.17,12.46,3.1,-3.66,-2.04,2
1632,-3.06,-1.15,12.21,12.49,-0.31,0.1,2
1657,-2.83,-0.85,11.68,20.35,4.81,-0.09,2
1681,-2.77,-0.73,10.75,25.96,8.96,-2.22,2
1706,-2.89,-0.69,9.55,27.18,11.09,-3.62,2
1731,-2.92,-0.71,8.31,23.22,4.57,-3.75,2
1756,-2.99,-0.64,7.4,15.11,6.58,-3.2,2
1780,-2.8,-0.66,6.67,5.29,5.54,-0.76,2
1805,-2.47,-0.51,6.36,-4.4,5,1.62,2
1830,-2.26,-0.54,6.14,-13.55,8.04,0.52,2
1854,-2.28,-0.69,6.2,-24.77,11.28,-3.32,2
1879,-2.4,-1.36,6.68,-38.91,11.64,-4.97,2
1903,-2.6,-1.85,8.19,-51.17,-2.26,-3.44,2
1928,-2.7,-1.94,9.91,-57.21,-14.64,-2.77,2
1952,-2.98,-1.91,12.06,-57.82,-14.27,-4.36,2
1978,-2.85,-1.45,14.47,-47.63,-16.41,-6.31,2
2003,-2.96,-0.84,16.16,-28.91,-23.42,-8.99,2
2027,-4.08,-0.49,17.57,-8.49,-6.04,-9.36,2
2052,-4.54,-0.74,19.98,16.02,2.13,-1.12,2
2076,-4.63,-0.89,19.98,48.77,-6.65,9.3,2
2102,-4.25,-0.66,19.98,87.49,-12.87,15.1,2
2127,-3.85,-0.68,19.98,126.51,-4.39,13.45,2
2151,-3.88,-1.34,19.98,162.49,-6.89,11.44,2
2176,-4.24,-2.39,19.98,190.11,-17.14,16.32,2
2201,-3.89,-3.32,17.91,209.62,-17.02,24,2
2226,-2.64,-4.35,15.2,223.34,-32.63,31.13,2
2250,-1.24,-4.7,11.09,227.36,-46.22,32.6,2
2275,0.7,-4.21,6.8,221.81,-60.49,25.28,2
2301,2.17,-3.79,2.45,204.86,-68.6,9.85,2
2325,3.32,-3.1,-1.39,173.95,-65.06,-11.73,2
2350,4.17,-2.28,-4.05,133.1,-82.02,-35.88,2
2374,3.64,-1.63,-6.28,87.85,-86.28,-57.16,2
2400,3.35,-1.12,-7.47,43.22,-86.16,-72.4,2
2425,2.69,-0.81,-8.42,-2.09,-80.8,-87.83,2
2449,1.79,-0.9,-8.91,-49.65,-71.77,-101.92,2
2474,0.77,-1.18,-8.77,-99.4,-75.49,-108.38,2
2498,-0.7,-1.95,-7.92,-150.13,-69.64,-109.35,2
2524,-1.52,-2.67,-6.07,-195.68,-51.1,-110.7,2
2548,-2.52,-4.38,-4.53,-240.56,-60.61,-104.78,2
2573,-4.41,-6.64,-1.41,-290.13,-44.82,-88.87,2
2599,-4.17,-7.84,4.43,-325.44,-44.46,-72.46,2
2623,-6.07,-9.11,10.37,-341.17,-55.19,-51.73,2
2648,-6.24,-11.42,19.38,-336.53,-49.7,-18.68,2
2673,-5.07,-10.94,19.98,-299.52,-61.65,13.39,2
2698,-3.08,-9.64,19.98,-225.25,-30.31,34.97,2
2723,0.62,-7.79,19.98,-132.94,-34.15,32.9,2
2748,1.77,-7.23,19.98,-44.22,-26.47,14,2
2773,1.38,-6.91,19.98,32.85,7.43,3.14,2
2797,1.83,-6.97,19.98,101.94,32.25,-0.27,2
2822,2.6,-7.4,19.98,167.67,34.87,-6.73,2
2846,2.28,-8.2,19.98,229.99,44.26,-15.64,2
2872,1.57,-9.26,19.98,273.28,45.18,-16.37,2
2897,0.26,-9.98,17.25,291.2,32.31,-6.67,2
2921,0.78,-10.16,12.81,292.73,6.7,1.56,2
2946,1.63,-9.59,8.32,287.18,-18.42,-1.49,2
2971,2.04,-8.47,3.49,269.44,-38.66,-12.4,2
2996,1.55,-7.21,-1.19,242,-47.14,-22.22,2
3021,1.9,-5.45,-5.93,202.91,-47.81,-30.03,2
3045,1.97,-3.39,-10.44,144.01,-63.3,-40.03,2
3071,1.81,-1.75,-12.29,78.28,-56.89,-51.12,2
3095,2.07,-0.94,-12.36,16.33,-39.82,-63.01,2
3120,2.35,-0.79,-11.01,-41.9,-46.47,-78.87,2
3145,0.9,-1.58,-9.57,-100.07,-47.44,-98.81,2
3170,-1.12,-3.43,-7.01,-156.23,-69.45,-101.18,2
3195,-1.94,-5.64,-3.23,-213.12,-85.43,-88.87,2
3219,-1.95,-4.97,2.59,-242.57,-64.88,-86.92,2
3245,-3.35,-5.19,7.64,-250.25,-51.83,-91.49,2
3269,-4.99,-5.8,12.5,-250.92,-55.31,-77.22,2
3294,-6.38,-4.88,19.03,-234.22,-61.59,-44.11,2
3320,-4.51,-2.91,19.98,-186.96,-42.69,-20.88,2
3344,-4.2,-2.04,19.98,-138.06,-51.65,-15.15,2
3369,-5.63,-2.66,19.98,-95.93,-55.55,7.29,2
3393,-4.78,-2.42,19.55,-59.04,-38.11,38.81,2
3419,-2.58,-2.45,17.83,-41.41,-23.91,47.17,2
3443,-2.54,-2.05,16.74,-38.79,-42.69,37.9,2
3468,-4.32,-1.92,15.94,-28.37,-56.16,40.52,2
3493,-5.26,-6.28,12.62,61.88,16.46,42.47,2
3518,-6.68,-3.4,10.1,21.15,1.82,101.19,2
3543,6.48,-0.88,19.98,63.95,-8.91,103.75,2
3567,-4.08,-3.38,11.2,51.63,-1.22,114.61,2
3592,-1.5,-2.83,11.02,58.16,47.31,124.79,2
3618,-0.38,-3.75,10.36,67,56.15,129.91,2
3642,-1.34,-4.07,8.97,65.6,66.34,145.89,2
3667,0.56,-3.12,9.29,63.52,82.25,152.59,2
3691,0.57,-2.95,7.93,55.72,90.67,141.44,2
3717,-0.2,-3.52,6.77,33.16,92.19,142.17,2
3741,-0.02,-4.09,7.27,8.28,74.93,153.81,2
3766,2.58,-3.64,9.05,-5.56,21.58,157.23,2
3791,3.25,-2.6,9.14,-3.55,-6.1,139.85,2
3815,2.84,-2.02,7.84,0.78,41.52,118.39,2
3841,3,-3.03,6.46,-13,40.54,105.4,2
3865,4.05,-1.29,7.52,-57.21,-14.76,101.07,2
3890,3.63,-3.88,10.34,-76.23,-111.53,103.57,2
3914,3.48,-1.78,11.18,-51.35,-18.17,86.68,2
3940,4.44,-1.06,11.26,-26.66,-2.93,53.08,2
3965,2.18,-3.18,8.87,-17.94,-10.13,35.71,2
3989,0.87,-3.86,7.53,-33.06,7.43,28.33,2
4014,1.03,-3.54,8.7,-55.87,-5.07,19.91,2
4038,1.01,-3.33,10.69,-70.74,-55.67,15.03,2
4064,-0.55,-2.64,13.05,-72.02,-57.2,14.85,2
4089,-0.72,-1.99,17.49,-52.63,-19.33,12.9,2
4113,-0.3,-2.04,19.98,-18.43,-29.82,14.67,2
4138,-0.16,-2.32,19.98,19.13,-39.7,20.03,2
4163,0.52,-1.96,19.98,59.19,-8.42,18.94,2
4188,1.57,-2.83,19.98,100.23,-7.14,14.67,2
4212,2.27,-4.18,19.98,142.24,-23.6,7.53,2
4237,2.99,-5.27,19.98,178.83,-16.22,-5.21,2
4263,3.05,-5.39,19.98,216.14,-2.26,-24.29,2
4287,2.04,-6.1,19.98,255.84,1.28,-36.43,2
4312,0.57,-6.98,16.69,285.35,-2.32,-35.09,2
4336,-0.36,-7.47,12.05,298.77,12.62,-27.65,2
4362,0.04,-6.75,7.65,294.37,8.23,-17.1,2
4387,0.13,-5.76,3.26,274.74,-23.05,-10.64,2
4411,0.62,-4.37,-0.89,245.17,-61.22,-10.21,2
4436,0.95,-2.93,-4.85,205.11,-77.56,-14.05,2
4461,1.99,-1.09,-8.54,154.93,-97.08,-24.84,2
4486,1.77,0.14,-12.62,97.43,-116.22,-39.29,2
4510,1.85,0.05,-15.11,31.57,-74.21,-47.77,2
4535,3.23,-0.11,-14.68,-38.98,-60,-58.26,2
4561,3.75,-0.48,-13.04,-104.34,-52.14,-79.78,2
4585,3.91,-1.28,-11.05,-165.01,-72.08,-110.94,2
4610,1.05,-3.02,-8.62,-226.6,-83.3,-130.45,2
4635,-2.07,-4.5,-5.27,-283,-88.54,-124.17,2
4660,-4.48,-6.43,-1.48,-329.16,-123.11,-92.46,2
4685,-6.1,-8.38,2.78,-357.51,-81.04,-49.05,2
4709,-4.07,-9.85,9.12,-370.74,-52.5,-23.44,2
4735,-2.74,-10.7,15.91,-362.02,-40.19,-9.17,2
4759,-3.53,-12.29,19.98,-334.95,-57.93,8.63,2
4784,-2.39,-12.06,19.98,-283.3,-30.92,31.8,2
4809,1.4,-10.48,19.98,-205.99,-9.09,33.51,2
4834,2.52,-8.19,19.98,-133.49,-21.77,21.13,2
4859,2.38,-6.5,19.98,-64.95,-8.72,10.83,2
4883,2.91,-5.76,19.98,-7.02,-10.19,-1.79,2
4909,2.85,-5.4,19.98,33.22,-16.53,-13.81,2
4933,2.77,-4.6,19.98,67.61,-3.48,-23.99,2
4958,2.8,-4.42,19.98,106.02,-1.47,-35.39,2
4983,3.02,-5.39,19.98,144.25,-14.52,-45.15,2
5008,2.74,-5.78,19.98,177.18,-36.59,-52.89,2
5033,1.83,-5.56,17.09,202.42,-4.27,-52.4,2
5057,3.34,-5.63,14.33,214.01,-41.96,-47.59,2
5082,3.71,-5.64,11.47,211.75,-72.5,-55.09,2
5107,3.1,-4.98,8.73,205.05,-65.13,-64.29,2
5132,3.9,-3.65,6.79,197.3,-46.77,-73.81,2
5157,3.43,-2.78,4.69,189.62,-49.82,-83.81,2
5181,2.49,-2.33,2.46,181.08,-48.66,-87.04,2
5207,1.53,-1.22,-0.01,168.71,-20.86,-86.24,2
5231,1.79,-0.54,-2.22,146.88,-7.38,-82.1,2
5256,1.08,0.26,-4.78,110.66,-28.78,-79.35,2
5280,-0.28,1.07,-7.13,68.16,-15.07,-71,2
5306,0.1,2.19,-8.34,19.99,-1.89,-65.21,2
5331,-0.38,2.09,-9.54,-38.18,-35.67,-66.24,2
5355,-2.98,1.07,-9.46,-102.33,-41.59,-58.32,2
5380,-3.63,-0.4,-7.73,-159.04,-31.47,-38.2,2
5404,-3.46,-2.83,-5.93,-212.75,-40.8,-18.87,2
5430,-3.27,-5.06,-2.58,-256.11,-13.48,3.63,2
5455,-1.31,-6.79,2.89,-290.74,9.02,1.62,2
5479,-2.23,-10.07,10.9,-311.84,-3.6,5.89,2
5504,-1.6,-10.84,19.75,-306.41,-34.94,26.92,2
5529,3.1,-7.14,19.98,-240.44,-29.52,23.08,2
5554,4.66,-4.06,19.98,-155.13,-17.75,-16.61,2
5578,1.91,-3.56,19.98,-89.1,-32.99,-46.43,2
5604,-0.68,-3.2,19.98,-59.04,-49.64,-42.1,2
5629,-1.29,-2.34,19.98,-42.27,-107.44,-18.93,2
5653,-10.17,-0.89,13.7,99.8,15.67,-25.21,2
5678,-1.55,-2.29,11.19,42.91,-106.89,-14.78,2
5703,0.94,-1.64,10.4,29.19,-71.28,-4.97,2
5728,1.12,-1.73,10.56,18.89,-78.42,6.25,2
5753,1.6,-1.4,11.3,21.88,-65.55,19.18,2
5777,2.71,-1.22,11.52,36.82,-58.54,22.9,2
5803,2.34,-1.44,10.74,54.26,-34.03,23.51,2
5827,2.76,-1.42,9.59,65.84,-9.58,25.16,2
5852,2.24,-1.74,8.79,64.19,-14.7,27.29,2
5876,1.95,-1.69,8.75,60.23,-25.19,39,2
5901,1.62,-1.32,8.48,59.19,-19.58,50.22,2
5927,1.38,-1.09,8.79,61.27,15.18,63.88,2
5951,0.97,-1,8.95,65.96,40.85,81.19,2
5976,1.22,-1.28,8.49,67.12,38.47,100.09,2
6000,1.31,-1.52,7.64,60.29,42.86,114.55,2
6025,1.16,-1.77,7.87,49.56,51.09,124.06,2
6051,0.63,-1.7,8.28,38.52,50.48,130.89,2
6075,-0.39,-2.43,8.08,32.79,52.31,144.73,2
6100,-0.82,-3.28,8.51,25.35,92.37,163.45,2
6124,0.19,-3.56,9.73,22,126.46,181.01,2
6150,2.5,-4.02,10.09,16.94,83.9,189.06,2
6174,2.51,-5.2,10.22,14.32,69.99,192.78,2
6199,2.86,-5.67,10.79,15.6,120.3,196.31,2
6225,6.09,-5.7,11.5,11.27,116.21,191.13,2
6249,7.54,-5.81,12.1,1.51,58.29,172.84,2
6274,7.94,-4.58,12.71,-4.77,55.85,138.81,2
6298,6.52,-4.57,15.71,6.21,107.31,110.52,2
6324,8.11,-3.3,18.8,26.88,89.93,93.69,2
6349,7.61,-2.52,19.08,45.9,-5.98,66.92,2
6373,5.45,-1.24,19.59,60.47,15.91,27.29,2
6398,3.53,-0.29,19.98,90.78,53.65,3.45,2
6422,2.14,-1.71,19.98,126.21,-27.5,4.73,2
6448,0.72,-2.51,19.98,166.08,-53.91,6.93,2
6472,0.6,-2.84,19.98,213.16,-21.65,1.38,2
6497,0.34,-3.92,18.49,256.08,-11.28,2.29,2
6522,-0.46,-4.52,12.8,277.61,-22.5,7.05,2
6547,-0.95,-4.48,7.81,273.22,-22.38,16.38,2
6572,-1.1,-3.83,3.57,251.88,-43.97,23.33,2
6596,-0.59,-3.06,-0.04,222.85,-40.55,24.97,2
6621,0.72,-1.53,-3.4,187.06,-45.49,21.62,2
6647,2.74,0.24,-6.82,145.23,-80.19,10.58,2
6671,3.62,0.77,-9.83,93.58,-91.53,-10.33,2
6696,3.91,0.83,-12.15,28.52,-79.09,-32.16,2
6720,5.32,0.74,-11.31,-41.17,-72.69,-58.01,2
6746,5.93,0.01,-10.05,-106.35,-119.33,-80.27,2
6770,3.9,-1.53,-9.22,-167.39,-116.95,-96,2
6795,2.89,-2.78,-6.82,-214.22,-65.43,-108.99,2
6821,2.29,-4.63,-5.53,-255.19,-82.38,-123.38,2
6845,-2.13,-7.31,-5.17,-303,-47.56,-131.61,2
6870,-4.35,-9.87,-1.8,-347.02,-3.66,-128.44,2
6894,-4.29,-13.97,2.41,-389.4,-45.55,-106.79,2
6920,-5.81,-17.92,9,-434.95,-73.11,-73.87,2
6944,-4.74,-18.69,18.89,-429.09,-20,-42.89,2
6969,-1.54,-17.24,19.98,-364.4,-14.39,-32.1,2
6995,-0.38,-13.98,19.98,-277.45,-44.27,-23.81,2
7019,0.95,-11,19.98,-173.06,-11.41,-16.92,2
7044,2.07,-10.11,19.98,-75.38,4.32,-17.22,2
7069,2.8,-9.4,19.98,17.24,-0.74,-20.39,2
7094,2.65,-8.31,19.98,105.6,12.5,-27.4,2
7119,1.98,-8.88,19.98,199.62,60.97,-28.44,2
7143,1.53,-10.48,19.98,274.74,80.3,-18.56,2
7169,1.15,-11.81,19.98,317,72.62,-7.22,2
7193,0.95,-12.33,17.84,333.09,49.45,0.64,2
7218,0.92,-12.2,14.03,339.25,21.82,4.91,2
7243,0.61,-11.15,9.76,338.58,18.29,-0.45,2
7268,-0.13,-10.1,5.08,321.2,-17.44,-7.95,2
7293,-1.67,-8.28,-0.03,292.61,-19.21,-4.78,2
7317,-1.24,-6.05,-3.75,254.31,-16.41,4.73,2
7343,0.32,-3.5,-6.74,208.34,-39.7,9.3,2
7367,0.7,-1.35,-9.11,156.45,-51.65,0.89,2
7392,1.38,0.16,-10.39,102.91,-44.58,-6,2
7417,2.13,1.25,-10.72,47.12,-40.98,-16.73,2
7441,2.48,1.78,-10.18,-5.93,-43.97,-35.39,2
7467,1.88,2.15,-9.22,-56.84,-39.7,-54.54,2
7491,0.92,1.74,-7.63,-106.96,-46.83,-66.18,2
7516,-0.88,0.34,-6.2,-153.18,-64.39,-64.54,2
7540,-0.57,-0.8,-3.45,-190.99,-44.33,-57.28,2
7566,-0.49,-1.65,-0.71,-217.51,-34.76,-49.48,2
7591,0.56,-2.39,2.61,-230.32,-2.99,-56.73,2
7615,-0.28,-5.38,6.09,-256.35,-49.7,-69.66,2
7640,-2.12,-7.58,10.87,-278.91,-78.11,-53.81,2
7665,-2.48,-6.4,17.57,-267.27,-22.57,-32.1,2
7690,-1.53,-3.43,19.98,-209.16,-11.83,-29.23,2
7715,-1.5,-1.74,19.98,-144.34,0.06,-39.6,2
7740,-3.88,-2.38,19.98,-109.58,-8.72,-36.06,2
7765,-5.46,-3.34,19.64,-95.01,-25.25,-6.37,2
7789,-2.88,-1.89,19.46,-79.46,-20.67,19.36,2
7814,-0.75,-1.21,19.39,-56.96,-16.28,10.95,2
7839,-3,-1.95,19.98,19.56,110.48,1.93,2
7864,-2.58,-1.91,19.89,-3.18,-75.25,-22.16,2
7889,-2.52,-2.21,15.47,29.87,21.95,-20.76,2
7913,-5.98,-2.33,11.97,26.76,46.15,0.28,2
7938,-5.45,-2.29,9.94,15.41,24.81,31.01,2
7963,-6.17,-2.42,10.16,2.61,-49.64,59.85,2
7988,-4.62,-1.72,11.79,12.61,-29.09,75.4,2
8013,-4.88,-1.61,11.62,36.51,-11.59,82.84,2
8037,-5.48,-3.01,10.04,51.57,12.86,105.28,2
8063,-4.99,-3.8,8.13,48.4,28.11,132.17,2
8087,-4.08,-4.07,7.16,31.63,21.64,152.23,2
8112,-4.18,-4.13,6.75,17.73,16.34,171.07,2
8136,-3.44,-4.05,6.34,4.44,24.69,186.19,2
8162,-2.48,-4.58,5.72,-6.66,25.79,198.26,2
8187,-1.72,-6.14,5.31,-19.04,45.36,208.57,2
8211,0.4,-7.54,6.16,-33.67,65.36,217.59,2
8236,2.78,-7.47,7.29,-52.33,47.31,214.24,2
8260,3.46,-7.57,9.43,-62.09,46.95,207.53,2
8286,4.91,-7.42,12.27,-57.51,74.87,192.47,2
8311,8.53,-7.21,14.97,-49.95,59.2,160.16,2
8335,7.13,-6.43,14.55,-47.39,-20.98,121.92,2
8361,5.43,-5.21,16.26,-45.99,-22.26,86.68,2
8385,3.76,-4.34,19.41,-30.56,-47.14,64.12,2
8410,2.13,-3.84,19.98,3.89,-76.89,59.36,2
8434,1.52,-2.97,19.98,44.99,-34.82,48.75,2
8460,1.22,-3.08,19.98,88.65,-3.66,37.72,2
8485,0.96,-3.92,19.98,128.4,-30.61,32.96,2
8509,0.23,-4.53,19.98,164.74,-28.48,26.32,2
8534,0.19,-5.08,19.98,199.56,-24.64,18.94,2
8559,0.12,-5.46,19.67,234.38,-35.55,16.56,2
8584,-0.18,-5.77,15.75,256.51,-35.37,13.88,2
8608,-0.15,-5.54,11.95,263.77,-36.83,9.49,2
8634,0.05,-5.31,8.34,255.59,-66.28,4.73,2
8659,-0.53,-5.31,5.62,239.19,-83.97,2.84,2
8683,-0.24,-5.03,3.41,219.19,-93.24,-0.33,2
8708,0.1,-3.01,1.58,199.74,-101.77,-9.78,2
8732,-0.22,-1.46,-1.56,179.74,-116.89,-19.54,2
8758,-0.37,0.25,-4.91,153.64,-91.59,-25.27,2
8783,0.62,1.76,-7.34,117.61,-74.82,-28.75,2
8807,1.04,2.13,-9.42,64.86,-106.47,-34.48,2
8832,2.73,2.41,-9.53,2.12,-73.05,-42.77,2
8857,3.24,2.8,-8.59,-49.71,-63.66,-56.06,2
8882,4.76,2.76,-7.02,-93.43,-57.14,-77.59,2
8906,3.94,1.38,-6.67,-139.83,-76.04,-98.13,2
8931,2.49,-0.34,-5.8,-189.4,-61.65,-107.16,2
8957,2.04,-1.6,-3.67,-232.27,-58.97,-111.18,2
8981,1.48,-4.1,-2.32,-272.88,-66.16,-119.54,2
9006,-1,-6.37,-0.22,-313.36,-52.14,-122.46,2
9031,-2.67,-8.31,3.66,-336.41,-27.26,-108.81,2
9056,-3.83,-10.3,6.59,-347.39,-15.13,-90.27,2
9081,-3.71,-12.44,10.68,-358.55,-14.09,-80.09,2
9106,-4.43,-13.82,16.53,-362.02,-26.89,-65.51,2
9131,-4.18,-13.74,19.98,-337.69,-32.38,-42.1,2
9155,-2.74,-13.04,19.98,-296.41,-49.58,-23.87,2
9181,-1.23,-10.01,19.98,-229.52,-37.08,-12.34,2
9205,-0.77,-8.15,19.98,-123.36,-20.19,-4.97,2
9230,-0.44,-9.55,19.98,-8.67,26.64,16.62,2
9255,2.81,-9.47,19.98,87.61,47.62,23.94,2
9280,4.42,-9.12,19.98,174.74,56.7,9.36,2
9305,3.36,-10.84,19.98,242.49,57.74,-3.44,2
9329,2.13,-12.55,19.98,287.18,46.09,-1,2
9354,1.28,-12.26,19.98,328.28,30.24,-0.7,2
9380,-0.3,-12.5,18.36,362.18,27.31,0.89,2
9404,-2.4,-12.52,12.58,378.52,18.35,10.58,2
9429,-3.05,-12.06,7.17,372.79,11.46,31.8,2
9454,-3.22,-10.59,1.75,348.22,-1.77,51.74,2
9479,-1.87,-8.06,-3.29,306.75,-23.11,67.84,2
9503,-0.37,-5.33,-7.01,256.2,-22.02,75.7,2
9528,2.48,-2.97,-9.42,199.92,-18.42,70.34,2
9554,4.29,-1.56,-11.1,136.21,-47.93,46.13,2
9578,5.88,-0.53,-10.75,70.29,-45.19,13.21,2
9603,6.59,0.46,-9.74,12.49,-81.04,-25.03,2
9627,5.85,1.15,-8.48,-30.87,-67.38,-64.66,2
9653,3.82,1.65,-7.77,-66.29,-53.48,-94.17,2
9678,2.11,1.81,-7.38,-102.08,-44.88,-109.42,2
9702,-0.28,0.81,-7.28,-149.28,-51.22,-108.26,2
9727,-1.07,0.29,-5.6,-199.64,-48.17,-98.99,2
9752,-1.72,-1.04,-3.2,-250.19,-64.52,-92.34,2
9777,-2.05,-3.74,0.42,-291.05,-75.06,-80.33,2
9801,-3.64,-5.89,5.36,-317.88,-63.05,-54.23,2
9826,-3.85,-7.7,12.95,-326.29,-53.66,-31.79,2
9852,-3.58,-9.29,19.98,-301.59,-32.44,-15.15,2
9876,-1.59,-8.16,19.98,-246.84,-31.04,-9.29,2
9901,0.24,-1.73,19.98,-164.58,-16.35,-22.34,2
9926,0.67,-1.05,19.98,-84.52,24.14,-38.68,2
9951,-2.81,-0.92,19.98,-41.29,15.67,-40.51,2
9976,-3.95,-0.84,18.7,-33.37,-2.44,-25.88,2
10000,-4.26,-0.31,17.07,-31.41,-20.07,-3.93,2
10026,-2.46,0.31,16.08,-16.66,-17.93,14.12,2
10050,-0.98,0.17,15.06,1.21,9.63,9.55,2
10075,-1.95,-0.62,13.96,8.71,-6.65,-4.6,2
10099,-4.68,-1.15,12.38,13.16,-12.2,-1.61,2
10124,-6.24,-1.44,10.52,18.77,-13.48,17.9,2
10150,-6.48,-2.51,8.92,22.12,-7.69,45.34,2
10174,-5.82,-2.1,7.47,23.04,9.87,66.19,2
10199,-5.44,-1.51,5.96,20.41,27.68,79.3,2
10223,-6.11,-2.07,4.89,2.67,29.26,90.03,2
10249,-6.61,-3.07,4.54,-29.04,11.64,111.44,2
10274,-6.61,-3.47,5.77,-59.04,-10.8,136.44,2
10298,-5.44,-3.81,8.84,-70.99,-18.85,161.62,2
10323,-5.19,-3.89,10.44,-63.12,-18.91,184.06,2
10348,-4.46,-5.58,11.26,-46.17,-12.2,211.37,2
10373,-3.15,-8.53,12.44,-30.68,3.59,246.01,2
10397,0.44,-8.69,13.1,-16.41,7.8,259.36,2
10423,3.27,-8.34,13.2,-1.41,17.13,245.76,2
10448,4.71,-8.74,12.13,7.91,15.61,217.72,2
10472,5.49,-8.5,11.37,7,8.78,191.74,2
10497,5.51,-8.09,11.07,3.71,0.24,168.39,2
10522,6.69,-6.92,11.36,1.45,-7.63,141.74,2
10547,6.78,-5.53,11.31,1.45,-25.67,107.41,2
10571,5.91,-4.88,10.89,3.71,-17.57,77.23,2
10596,5.67,-4.2,10.88,1.51,-11.47,53.21,2
10622,5.02,-3.38,11.78,-4.22,-27.63,29.67,2
10646,4.07,-2.95,13.21,-4.89,-36.22,10.77,2
10671,3.87,-2.33,16.08,-0.81,-38.42,-4.48,2
10695,3.26,-1.87,18.98,15.72,-57.75,-19.11,2
10721,2.57,-2.56,19.98,41.02,-93.78,-29.84,2
10746,1.11,-4.06,19.98,74.56,-94.03,-28.81,2
10770,2.18,-3.39,19.98,143.58,-30.43,-32.95,2
10796,2.27,-3.46,19.98,225.96,-15,-51.73,2
10820,-0.74,-5.75,19.98,279.38,-32.26,-59.96,2
10845,-2.71,-6.97,17.1,296.51,-40.06,-43.81,2
10871,-2.12,-6.74,12.46,295.9,-72.75,-21.98,2
10895,-1.01,-6.41,7.65,289.86,-82.32,-13.5,2
10920,-0.44,-5.46,2.74,274.44,-75.43,-15.94,2
10945,0.44,-4.74,-2.45,243.28,-95.61,-20.57,2
10970,0.45,-3.11,-7.17,194.68,-92.56,-27.28,2
10994,1.43,-1.56,-10.46,136.82,-69.58,-32.89,2
11020,2.83,-0.56,-12.39,69.44,-88.54,-41.12,2
11045,3.49,-0.36,-12.43,2.49,-78.48,-53.44,2
11069,3.88,-0.09,-11.4,-54.22,-63.24,-68.93,2
11094,4.49,-0.28,-9.83,-102.27,-48.05,-90.57,2
11119,3.56,-1.17,-8.2,-148.18,-46.65,-112.95,2
11144,1.66,-2.42,-6.71,-193,-30.61,-128.26,2
11168,0.16,-3.9,-4.7,-243.06,-40.55,-134.23,2
11194,-1.6,-5.9,-1,-294.09,-51.16,-122.28,2
11219,-1.89,-6.92,4.43,-326.72,-42.63,-109.84,2
11243,-3.01,-9.5,8.6,-346.96,-85.98,-94.9,2
11269,-4.79,-10.84,13.27,-350.62,-40.43,-68.93,2
11293,-3.37,-10.59,18.85,-328.12,-28.66,-46.25,2
11319,-1.39,-9.42,19.98,-292.39,-44.03,-33.44,2
11344,-0.03,-8.88,19.98,-255.13,-67.02,-28.32,2
11368,0.77,-7.92,19.98,-218.42,-58.24,-19.72,2
11394,2.76,-6.5,19.98,-178.55,-42.99,-16.18,2
11418,3.38,-5.79,19.98,-128.67,-39.33,-14.96,2
11443,4.41,-7.01,19.98,-65.93,-11.47,-12.83,2
11469,4.1,-9.08,19.98,19.56,81.89,-11.55,2
11493,6.32,-7.86,19.98,121.39,46.03,-21.25,2
11518,4.93,-10.5,19.98,220.78,79.45,-22.16,2
11543,4.75,-11.34,19.98,296.63,61.58,-25.03,2
11568,2.76,-11.75,19.98,343.95,60.97,-31.98,2
11592,0.51,-12.2,15.72,364.37,32.98,-24.05,2
11618,-0.88,-12.39,9.99,369.68,7.01,-7.16,2
11643,-1,-11.07,5.08,353.83,-0.8,4.73,2
11667,-1.34,-8.91,-0.74,318.76,-39.94,12.35,2
11693,-0.51,-7.03,-4.86,271.57,-20.07,24.73,2
11717,0.8,-4.14,-7.53,220.78,-22.57,26.5,2
11742,2.04,-1.42,-9.75,166.08,-23.66,16.86,2
11767,2.75,0.2,-12.01,101.57,-52.93,5.4,2
11792,3.01,1.12,-12.34,31.45,-42.87,-14.05,2
11817,2.78,1.88,-10.73,-31.72,-50.49,-28.62,2
11841,3.32,2.98,-8.7,-77.88,-46.04,-47.77,2
11866,2.42,2.5,-7.36,-120.56,-39.58,-75.15,2
11891,0.05,0.58,-6.44,-167.02,-45.31,-81.73,2
11916,-1.45,-0.89,-4.24,-217.45,-44.64,-72.22,2
11941,-1.29,-2.53,-1.31,-260.68,-61.28,-56.79,2
11966,-0.89,-4.48,2.66,-295.62,-54.27,-48.26,2
11991,-0.42,-6.85,7.65,-324.7,-85.43,-41.73,2
12015,-1.55,-8.88,15.72,-327.51,-85.55,-19.84,2
12041,0.11,-8.09,19.98,-279.28,-89.27,-0.21,2
12066,1.39,-4.66,19.98,-201.05,-48.54,10.46,2
12090,2.11,-1.92,19.98,-116.78,-0.55,5.64,2
12116,1.34,-1.63,19.98,-64.1,7.62,7.53,2
12140,0.39,-2.86,19.44,-44.22,-4.88,23.14,2
12165,2.17,-1.85,18.05,-35.87,-12.63,28.14,2
12189,3.01,-0.67,17.75,-31.54,-24.39,13.39,2
12215,1.57,-1.03,17.73,-20.32,-27.75,-5.27,2
12240,-1.79,-2.29,17.05,1.15,-20.67,-5.03,2
12264,-3.7,-2.5,15.3,33.83,3.59,15.1,2
12289,-3.6,-1.2,13.01,56.08,39.87,31.01,2
12314,-4.57,-0.91,11.22,55.78,37.01,37.11,2
12339,-6.13,-1.86,9.85,44.19,23.65,56.01,2
12363,-7.41,-2.59,9.05,32.3,-1.22,92.47,2
12388,-6.47,-3.04,8.64,29.32,10.36,134.24,2
12414,-4.13,-3.66,8.95,31.08,21.95,161.68,2
12438,-2.28,-4.76,8.47,35.05,38.78,172.78,2
12463,-1.36,-5.06,7.7,33.65,38.35,176.98,2
12487,-1.83,-6.01,6.69,25.11,52.5,184.67,2
12513,-1.03,-7.52,6.45,8.1,72.01,198.75,2
12538,1.36,-7.59,7.11,-14.95,49.81,212.65,2
12562,1.33,-7.93,8.1,-31.48,-21.16,230.46,2
12588,2.29,-8.14,8.96,-31.23,-23.11,241.68,2
12612,4.08,-7.44,10.6,-17.15,5.24,233.26,2
12637,5.79,-7.59,11.13,0.72,10.06,216.13,2
12661,6.63,-8.03,10.24,3.34,8.72,200.22,2
12687,8.47,-8.6,11.09,-9.52,1.76,174.36,2
12712,10.07,-7.5,13.35,-13.37,-21.35,136.68,2
12736,10.19,-5.42,15.03,-1.11,-25.74,87.96,2
12762,9.1,-3.53,15.83,17.85,-15.74,40.46,2
12786,6.9,-2.88,15.76,28.83,-14.94,6.99,2
12811,4.82,-3.56,17.53,31.21,-22.69,-4.78,2
12836,3.51,-2.69,19.98,49.07,-9.76,-5.21,2
12861,4.15,-1.97,19.98,100.11,-17.75,-17.77,2
12886,2.49,-3.38,19.98,162.06,-27.81,-38.5,2
12910,0.6,-5.02,19.98,210.9,-29.7,-46.73,2
12936,-1.23,-6.26,19.98,243.16,-36.35,-42.4,2
12960,-1.86,-6.92,16.96,261.75,-46.77,-31.25,2
12985,-1.63,-6.47,13.62,274.62,-58.24,-20.21,2
13011,-1.11,-5.8,9.36,282.18,-76.35,-14.48,2
13035,-0.83,-5.18,4.41,275.11,-89.64,-11.49,2
13060,-0.46,-4.4,-0.37,249.62,-101.71,-8.5,2
13085,0.38,-2.57,-4.4,210.9,-100.06,-7.28,2
13110,1.33,0.03,-8.39,160.05,-126.1,-13.99,2
13135,1.3,1.39,-11.64,101.15,-112.63,-24.42,2
13160,2.26,1.48,-12.67,34.56,-95.06,-26.12,2
13185,4.06,1.03,-12.72,-31.96,-90.92,-28.38,2
13209,6.26,0.68,-10.77,-91.23,-72.63,-41.49,2
13234,8.31,0.72,-8,-131.17,-23.78,-71.79,2
13259,8.54,-0.88,-6.51,-165.62,-28.78,-118.5,2
13284,6.44,-4.05,-5.88,-208.49,-11.28,-160.76,2
13309,3.88,-6.63,-4.4,-266.9,-21.28,-187.71,2
13334,-0.3,-9.36,-1.38,-328.24,-57.99,-191.49,2
13359,-3.22,-11.88,2.43,-370.98,-69.09,-179.54,2
13384,-6.28,-13.93,6.79,-395.31,-72.5,-152.04,2
13409,-7.77,-15.17,12.6,-393.12,-56.35,-102.46,2
13434,-6.33,-14.05,18.3,-363.12,-28.05,-50.45,2
13459,-3.41,-12.11,19.98,-321.41,-28.11,-30.21,2
13484,-2.6,-10.57,19.98,-269.95,-31.53,-21.73,2
13509,-1.82,-10.21,19.98,-197.51,-21.22,5.03,2
13534,1.67,-9,19.98,-108.73,-8.3,25.22,2
13559,4.62,-7.99,19.98,-8.24,18.53,17.53,2
13583,5.96,-7.06,19.98,82.73,20.97,-6.37,2
13609,3.62,-8.6,19.98,172.85,50.48,-17.1,2
13633,2.91,-10.41,19.98,245.23,50.48,-11.37,2
13658,2.65,-10.03,19.98,303.22,56.82,-8.26,2
13683,1.47,-10.5,19.98,341.63,37.01,-6.49,2
13708,0.37,-10.73,13.68,354.25,14.08,3.21,2
13733,0.44,-10.43,8.48,343.03,-6.16,11.5,2
13758,1.21,-9.41,3.63,318.34,-59.58,15.28,2
13783,1.67,-7.83,-0.85,286.27,-71.83,9.67,2
13807,2.2,-5.39,-4.47,251.69,-70.19,-3.75,2
13832,1.16,-2.77,-7.79,222.61,-64.76,-16,2
13858,2.13,-2.67,-10.32,151.75,-25.86,-26.61,2
13882,2.48,-0.83,-11.08,80.35,-66.22,-34.29,2
13907,2.09,0.6,-10.56,16.51,-75.86,-48.14,2
13932,1.16,1.56,-9.41,-37.09,-82.81,-61.06,2
13957,-0.22,2.06,-8.29,-85.07,-72.2,-65.7,2
13981,-1.5,1.48,-7.09,-128.24,-84.09,-57.1,2
14007,-2.5,0.54,-5.6,-169.4,-68.66,-42.83,2
14032,-0.47,-0.17,-3.27,-204.83,-74.58,-30.82,2
14056,-0.27,-1.9,-0.89,-244.71,-107.69,-15.39,2
14081,-2.25,-3.12,1.94,-276.96,-72.38,-9.54,2
14106,-1.02,-6.71,6.24,-310.74,-86.77,19.97,2
14131,-1.05,-10.04,12.68,-332.81,-103.72,71.8,2
14155,4.79,-8.87,19.98,-312.33,-110.61,92.29,2
14181,9.08,-6.72,19.98,-238.73,-36.28,59.12,2
14206,8.71,-4.56,19.98,-145.13,8.96,14.42,2
14230,6.85,-2.51,19.98,-53.55,35.85,-10.45,2
14256,4.52,-2.09,19.98,0.17,38.04,-19.17,2
14280,3.54,-1.49,16.65,17,21.03,-14.42,2
14305,3.43,-1.08,12.69,4.68,18.47,-13.2,2
14331,3.02,-0.87,10.81,-23.12,-12.69,-16.98,2
14355,1.76,-0.85,11.39,-41.05,-27.99,-21.43,2
14380,0.26,-1.64,11.61,-38.91,-26.22,-20.15,2
14404,-1.3,-2.08,12.55,-17.33,14.02,-10.57,2
14430,-0.6,-1.8,13.33,5.35,27.68,-3.93,2
14455,-0.92,-2.79,12.99,18.34,10.91,3.02,2
14479,-1.19,-3.54,12.84,23.46,-0.13,15.89,2
14504,0.19,-2.08,12.85,35.41,-2.02,24,2
14529,-0.46,-1.51,11.5,35.05,-43.6,28.75,2
14554,-1.75,-1.41,10.98,32.73,-32.93,41.99,2
14578,-1.94,-1.35,11.51,39.62,-14.21,59.79,2
14603,-1.83,-1.85,11.74,57.43,5.36,84.06,2
14629,-1.1,-2.36,10.89,74.5,30.12,108.14,2
14653,-0.56,-2.51,9.47,83.46,46.15,126.19,2
14678,-0.43,-3.36,8.46,84.07,81.7,142.35,2
14703,0.54,-3.67,7.83,73.52,70.54,154,2
14728,0.05,-3.77,6.34,61.63,50.3,168.2,2
14752,0.4,-4.24,5.71,41.33,71.28,179.55,2
14777,1.26,-5.22,5.91,17.12,45.54,196.25,2
14803,2.13,-6.68,7.08,0.48,34.45,215.76,2
14827,4.26,-6.96,9.59,-0.2,89.08,222.96,2
14852,9.6,-7.24,12.57,7.43,68.1,209.85,2
14876,12.92,-5.8,13.19,-8.18,-45,177.17,2
14902,8.45,-6.76,12.41,22.67,-84.58,144,2
14927,8.28,-3.28,10.61,50.84,55.3,100.34,2
14951,6.96,-2.02,9.85,52.24,47.74,66.13,2
14977,4.08,-3.42,7.42,29.62,-8.24,56.07,2
15001,3.48,-2.85,7.72,-1.96,-15.43,50.64,2
15026,4.22,-1.53,10.64,-16.41,-19.52,32.78,2
15050,3.25,-0.97,12.94,-9.77,-32.14,16.5,2
15076,1.92,-1.17,15,5.96,-18.24,16.25,2
15101,2.73,-0.66,17.31,27.67,7.37,18.21,2
15125,4.51,-1.56,19.98,45.35,-17.32,12.29,2
15150,4.21,-1.83,19.98,71.45,-20.8,-0.15,2
15175,5.11,-1.93,19.98,131.33,-0.98,-13.07,2
15200,4.73,-3.12,19.98,198.34,-29.76,-30.88,2
15225,2.37,-4.54,19.98,245.35,-6.59,-41.73,2
15250,1.35,-5.18,16.91,276.88,-6.96,-36.79,2
15275,0.66,-5.44,11.87,285.29,-22.99,-32.46,2
15299,0.22,-4.48,7.41,273.95,-26.1,-29.96,2
15324,-0.01,-3.74,4.11,254.44,-35.98,-22.34,2
15349,0.35,-3.05,0.79,229.99,-55.67,-14.42,2
15374,1.65,-1.65,-3.09,199.44,-70.67,-13.32,2
15399,2.73,-0.38,-7.17,153.22,-82.87,-20.94,2
15424,4.14,-0.36,-11.03,87.67,-117.14,-33.38,2
15449,4.24,-0.51,-12.89,2.24,-135.37,-47.4,2
15473,5.56,0.31,-11.42,-69.4,-122.93,-65.51,2
15499,5.65,0.43,-9.67,-117.94,-112.08,-95.57,2
15524,4.15,-0.64,-9.14,-155.38,-85.31,-124.05,2
15548,1.79,-2.39,-9.33,-201.11,-63.91,-137.34,2
15574,0.65,-4.6,-8.43,-259.16,-56.28,-137.65,2
15598,-0.8,-7.73,-6.76,-331.11,-81.22,-129.17,2
15623,-1.5,-10.82,-1.79,-390.13,-41.28,-114.9,2
15648,-1.82,-13.18,4.17,-431.47,-45.8,-116.18,2
15673,-4.51,-15.16,10.95,-445.98,-43.66,-103.56,2
15699,-6.04,-18.44,17.75,-445.01,-97.32,-54.78,2
15723,-4.86,-17.74,19.98,-417.33,-66.89,3.08,2
15748,0.03,-14.39,19.98,-325.5,-44.76,31.32,2
15773,3.01,-13.58,19.98,-178.91,33.47,30.95,2
15798,5.4,-10.08,19.98,-44.59,-2.87,13.27,2
15823,5.54,-8.85,19.98,70.05,48.84,-3.26,2
15848,4.36,-9.14,19.98,156.57,53.47,-9.05,2
15873,4.2,-10.11,19.98,224.31,68.35,-9.66,2
15897,3.26,-11.23,19.98,274.56,54.93,-7.89,2
15923,2.97,-11.52,19.98,324.8,37.5,-6.18,2
15947,1.86,-12.44,19.08,369.98,26.82,-8.01,2
15972,0.55,-12.69,13.67,393.09,35.85,-5.57,2
15998,-0.76,-12.05,7.65,392.12,17.25,5.03,2
16022,-0.62,-10.26,1.34,364.5,-28.48,18.88,2
16047,-0.7,-6.14,-3.45,318.89,-84.82,20.4,2
16072,-0.17,-4.88,-7.04,251.81,-39.64,21.56,2
16097,1.03,-2.2,-9.74,184.38,-86.77,20.95,2
16122,1.09,0.06,-11.31,120.47,-79.15,14.61,2
16146,2.28,1.47,-11.25,63.65,-57.14,4.79,2
16172,3.08,2.3,-10.66,11.94,-53.54,-13.01,2
16196,1.97,2.35,-10.44,-38.85,-66.71,-24.48,2
16221,1.49,2.6,-9.44,-87.27,-38.17,-29.54,2
16247,1.49,2.34,-8.26,-134.22,-42.02,-37.1,2
16271,1.02,1.07,-7.12,-184.28,-33.78,-43.81,2
16296,1.31,-0.8,-5.26,-237.33,-38.6,-45.21,2
16320,0.98,-2.48,-2.22,-287.81,-50,-46.43,2
16346,-0.7,-5.24,2.04,-330.38,-57.44,-38.87,2
16370,-3.07,-9.34,8.48,-360.31,-39.27,-15.33,2
16395,-0.98,-10.91,17.51,-340.07,-10.31,22.47,2
16421,3.02,-9.43,19.98,-286.66,-5.25,23.33,2
16445,4.97,-7.52,19.98,-217.69,-2.2,-4.6,2
16470,4.21,-4.05,19.98,-137.15,21.34,-31.61,2
16495,2,-2.43,19.98,-67.27,18.59,-40.82,2
16520,0.67,-1.42,19.98,-31.66,-3.48,-34.84,2
16544,-0.69,-1.03,17.36,-21.35,-18.05,-22.89,2
16570,-0.22,-0.25,15.47,-16.35,-18.24,-8.75,2
16595,0.03,-0.04,13.51,-11.9,-25.74,-2.59,2
16619,0.24,-0.72,12.24,-7.57,-19.27,-0.88,2
16644,-0.2,-1.7,11.4,-13.12,-27.38,-1.06,2
16668,-0.48,-1.51,11.11,-18.55,-38.17,-3.38,2
16694,-1.67,-1.51,12.07,-16.35,-25.07,-2.83,2
16719,-2.82,-2.02,13.55,-2.21,-20.19,4.67,2
16743,-3.98,-2.68,13.45,22.61,-13.91,24.06,2
16768,-3.87,-1.94,12.2,43.16,13.23,43.14,2
16793,-3.57,-1.57,10.72,49.87,20.61,51.19,2
16818,-3.35,-2.65,9.37,51.15,46.52,55.46,2
16842,-3.45,-3.92,8.2,39.13,35.42,68.88,2
16867,-3.23,-3.73,7.82,19.93,25.48,86.5,2
16893,-3.07,-3.95,7.88,7.61,-0.55,107.84,2
16917,-3.19,-4.24,8.21,8.22,-12.75,138.94,2
16942,-2.32,-4.44,7.94,19.38,0.54,172.35,2
16966,-1.39,-5.09,7.52,30.05,45.36,196.92,2
16992,-0.49,-6.1,7.69,34.44,107.68,214.79,2
17017,0.14,-7.24,8.34,31.08,126.15,236.37,2
17041,2.65,-7.9,7.21,13.77,36.21,252.9,2
17067,2.83,-8.82,6.01,-9.52,-10.67,254.3,2
17091,3.34,-8.48,7.19,-32.15,24.02,243.81,2
17116,5.73,-8.58,11.01,-38.73,36.28,229.61,2
17140,7.93,-7.74,12.95,-39.1,-52.5,208.57,2
17166,7.54,-7.31,13.01,-30.01,-72.32,174.36,2
17191,8.1,-6.23,15.01,-15.62,4.69,132.47,2
17215,8.64,-4.46,17.67,5.41,-5.19,89.67,2
17241,6.21,-4.14,17.01,25.41,-51.65,61.5,2
17265,4.84,-3.79,16.89,38.65,-21.22,40.58,2
17290,4.69,-2.72,18.4,55.41,-13.85,20.64,2
17315,3.93,-2.6,19.06,77,-38.97,4.91,2
17340,2.88,-3.5,18.96,91.75,-75.49,-5.39,2
17365,2.77,-3.62,19.98,117.49,-43.48,-14.11,2
17389,3.36,-2.9,19.98,163.83,-58.91,-23.5,2
17415,2.12,-3.81,19.98,215.11,-62.38,-31.37,2
17439,1.24,-4.75,16.74,246.08,-63.97,-30.21,2
17464,1.19,-4.2,12.63,260.29,-58.48,-29.78,2
17490,0.83,-3.65,8.5,255.59,-72.75,-29.17,2
17514,0.61,-2.35,4.97,239.19,-91.59,-25.45,2
17539,0.89,-1.27,1.58,216.27,-104.7,-22.4,2
17564,1.62,-0.44,-2.21,187.55,-102.44,-20.64,2
17589,2.85,0.22,-5.63,145.29,-95.55,-20.88,2
17614,4.6,0.11,-7.85,93.28,-105.61,-27.1,2
17639,6.11,-0.21,-9.43,34.13,-104.33,-42.46,2
17664,6.99,-0.63,-9.6,-24.83,-65.06,-77.28,2
17688,7.54,-1.74,-8.78,-78.55,-51.28,-118.26,2
17713,5.18,-3.85,-8.89,-137.94,-82.44,-149.78,2
17738,1.15,-5.77,-8.24,-201.05,-92.69,-156.85,2
17763,-0.14,-6.65,-6.59,-251.72,-36.1,-157.89,2
17788,-1.22,-8.47,-4.41,-300.07,-40.06,-168.68,2
17813,-3.77,-11.34,-2.97,-357.45,-61.16,-168.38,2
17838,-6.47,-15.44,1.08,-421.53,-89.82,-141.31,2
17863,-8.04,-16.85,8.91,-465.31,-97.26,-91.67,2
17888,-7.04,-17.53,19.79,-459.09,-107.26,-30.88,2
17913,-4.59,-15.77,19.98,-382.81,-79.21,35.83,2
17938,-0.02,-10.38,19.98,-266.35,-22.63,72.23,2
17963,5.47,-9.76,19.98,-144.58,13.29,67.41,2
17988,7.31,-7.97,19.98,-52.02,-8.17,45.28,2
18013,8.29,-7.13,19.98,31.76,-5.25,23.63,2
18037,8.66,-7.36,19.98,114.68,13.96,1.62,2
18062,7.93,-8.79,19.98,203.95,34.63,-17.46,2
18088,6.31,-11.54,19.98,283.77,52.07,-21.86,2
18112,6.6,-12.81,19.98,344.92,24.08,-23.93,2
18138,3.84,-13.75,18.89,389.5,27.86,-38.56,2
18162,3.15,-13.66,13,408.28,30.79,-37.53,2
18187,0.57,-12.74,6.77,397.36,-8.54,-30.7,2
18213,-0.03,-11.44,1.14,368.34,-25.86,-20.94,2
18237,-0.38,-8.31,-4.67,318.16,-54.64,-12.65,2
18262,-0.31,-3.17,-9.01,256.88,-115.8,-10.39,2
18287,0.09,-1.65,-12.68,181.57,-71.22,-11.67,2
18312,0.91,-0.12,-14.24,94.32,-73.85,-12.22,2
18336,1.48,1.55,-13.61,16.15,-81.53,-18.99,2
18362,1.14,2.09,-12.28,-54.16,-109.45,-21.73,2
18387,0.97,2.65,-10.48,-109.22,-72.75,-25.09,2
18411,0.85,2.06,-8.53,-155.62,-68.91,-31.37,2
18437,-0.02,0.73,-7.05,-202.51,-61.53,-29.42,2
18461,-1.09,-0.49,-4.81,-246.05,-46.22,-18.62,2
18486,-0.6,-1.52,-1.53,-276.96,-17.38,-11.12,2
18511,-1.08,-3.52,1.59,-296.05,-2.87,-2.65,2
18536,-1.78,-5.54,6.55,-303.55,41.46,4.36,2
18561,-0.68,-9.1,11.99,-294.83,50.67,7.05,2
18585,0.28,-11.43,16.93,-289.58,31.89,14.36,2
18611,2.69,-10.12,19.98,-265.62,17.56,13.75,2
18635,4.38,-6.97,19.98,-209.77,14.45,-1.86,2
18660,4.76,-3.67,19.98,-132.45,32.25,-32.95,2
18686,1.94,-2.45,19.98,-70.56,28.04,-51.25,2
18710,-1,-2.19,19.26,-34.65,18.9,-38.2,2
18735,-0.88,-1.35,16.29,-18.91,12.56,-9.48,2
18759,0.66,-0.06,15.93,-25.56,-55.25,0.83,2
18785,1.38,-0.56,13.81,-9.83,27.01,-0.51,2
18810,0.47,-1.53,13.93,-2.63,-17.2,-4.48,2
18834,0.64,-1.67,12.58,11.51,13.96,-4.42,2
18859,-0.32,-2.04,11.93,12.55,-2.81,-3.75,2
18883,-1.15,-2.38,11.41,15.23,-12.63,1.56,2
18909,-1.52,-2.4,11.42,23.95,-4.88,6.93,2
18933,-1.54,-2.36,11.15,33.16,-11.59,13.45,2
18958,-1.77,-2.48,10.59,41.57,-10.37,18.02,2
18983,-1.73,-2.15,10.06,47.79,-2.32,20.22,2
19008,-1.78,-2.17,9.26,49.68,-7.26,24.55,2
19033,-1.71,-1.82,8.73,45.6,-4.82,31.68,2
19057,-1.79,-1.41,8.17,37.67,-5.43,38.81,2
19082,-1.46,-1.6,8.72,28.65,-11.71,48.27,2
19108,-1.13,-2.09,9.29,28.83,0.48,56.68,2
19132,-1.33,-1.76,9.2,26.51,2.8,62.6,2
19157,-2.63,-2.25,9.15,22.67,-11.16,75.58,2
19181,-3.58,-2.51,8.94,20.84,3.29,100.89,2
19206,-3.03,-2.63,9.63,13.22,11.03,125.4,2
19231,-2.52,-3,10.44,8.65,-18.36,144.85,2
19256,-2.51,-3.66,10.49,12.79,-28.6,162.41,2
19281,-1.79,-4.15,10.69,21.82,-8.97,180.89,2
19306,-0.58,-4.36,10.94,32.49,22.13,191.31,2
19331,0.34,-5.56,10.71,43.28,34.51,200.4,2
19355,1.34,-7.11,9.96,46.76,63.35,210.83,2
19381,3.66,-7.26,10.06,40.41,84.87,211.44,2
19406,5.72,-6.98,10.63,34.8,71.09,202.23,2
19430,7.28,-6.84,10.4,32.85,52.5,186.19,2
19456,8.39,-5.86,9.63,27.55,68.59,159.79,2
19480,8.98,-5.04,9.9,16.82,72.74,125.52,2
19505,8.83,-3.97,10.2,6.63,15.12,93.81,2
19529,7.44,-3.18,9.46,-0.38,-5,64.91,2
19555,6.63,-2.6,9.64,-6.78,-7.02,36.62,2
19580,5.8,-2,10.57,-11.54,-11.71,7.66,2
19604,4.04,-1.7,11.12,-18.24,-60.67,-10.27,2
19629,1.47,-1.31,12.28,-26.9,-63.24,-20.57,2
19653,0.52,0.22,16.7,-11.23,-14.09,-21.86,2
19679,0.25,0.11,19.98,18.16,-37.38,-14.84,2
19704,-0.93,-0.81,19.98,49.93,-42.99,-5.15,2
19728,0.45,-0.25,19.98,100.54,-12.57,-1.86,2
19754,0.94,-1.72,19.98,162.61,-13.05,-6.18,2
19778,0.93,-3.78,19.98,207.3,-30,-2.47,2
19803,1.14,-4.67,18.55,227.73,-45.8,-0.88,2
19827,1.51,-4.65,16.18,244.8,-31.04,-4.6,2
19853,2.54,-5.19,13.16,256.88,-62.2,-7.59,2
19878,2.37,-5.02,7.75,246.33,-112.93,-19.11,2
19902,2.41,-3.72,3.06,215.47,-122.99,-36.12,2
19928,3.06,-2.18,-0.69,178.89,-148.97,-54.66,2
19952,3.08,-0.95,-4.4,131.45,-170.43,-71.49,2
19977,2.98,0.21,-7.09,80.78,-149.45,-83.01,2
20003,2.94,0.82,-8.06,37.12,-110.06,-90.7,2
20027,3.42,0.66,-8.97,-4.46,-96.41,-99.66,2
20052,2.35,-0.27,-9.48,-53,-89.76,-108.32,2
20076,1.35,-1.02,-9.17,-100.19,-76.16,-110.15,2
20102,0.02,-1.86,-8.85,-144.04,-57.5,-111.98,2
20126,-1.52,-3.07,-8.59,-191.53,-43.42,-111.98,2
20152,-3.18,-4.28,-7.59,-249.64,-46.59,-106.85,2
20177,-5.09,-6.57,-5.02,-310.92,-72.26,-83.81,2
20201,-5.72,-8.29,-0.99,-349.03,-52.81,-41.92,2
20227,-4.21,-9.05,4.14,-366.29,-4.52,-21,2
20251,-4.94,-10.6,9.21,-383.55,-50.49,-5.82,2
20276,-7.19,-12.1,16.41,-370.5,-35.06,44.97,2
20301,-4.78,-13.81,19.98,-323.18,-11.77,99.06,2
20326,0.87,-12.34,19.98,-256.47,8.11,121.31,2
20351,5.7,-10.46,19.98,-171.72,23.35,103.14,2
20376,7.7,-9.66,19.98,-94.71,25.79,61.31,2
20401,6.64,-9.96,19.98,-43.18,1.22,25.64,2
20425,6.27,-9.51,19.98,10.6,-9.94,8.94,2
20450,6.89,-8.84,19.98,79.74,-18.48,-6,2
20476,6.92,-8.79,19.98,159.86,1.7,-30.57,2
20500,4.97,-10.57,19.98,228.89,6.22,-47.65,2
20525,3.25,-12.39,19.98,283.83,-0.13,-46.98,2
20550,2.55,-12.46,19.98,324.31,-14.33,-44.29,2
20575,1.62,-12.13,16.1,356.39,-20.74,-42.04,2
20600,0.57,-11.78,10.04,370.47,-22.14,-37.59,2
20625,0.09,-10.09,2.67,355.59,-57.75,-28.93,2
20650,0.12,-7.84,-4.19,307.24,-63.6,-22.04,2
20674,0.17,-5.11,-8.92,237.42,-75.61,-14.48,2
20700,1.44,-2.16,-11.18,170.72,-73.3,-10.15,2
20724,2.28,-0.6,-12.15,106.69,-72.38,-17.53,2
20749,3.08,-0.2,-12.12,44.74,-64.45,-31,2
20775,3.83,0.31,-10.94,-12.27,-55.31,-49.78,2
20799,3.03,0.3,-9.61,-60.8,-52.32,-66.98,2
20824,1.48,0.32,-8.22,-106.47,-50.55,-77.59,2
20849,0.08,-0.38,-6.88,-150.01,-36.16,-74.9,2
20874,-0.24,-1.78,-5.47,-192.45,-42.08,-64.54,2
20899,-1.06,-2.38,-3.18,-234.64,-15.31,-59.42,2
20923,-1.74,-3.85,1.23,-261.23,13.9,-50.64,2
20949,-1.37,-5.73,4.26,-280.74,-1.22,-40.33,2
20973,-3.19,-9.2,9.08,-304.52,-1.22,-20.27,2
20998,-1.64,-9.74,16.53,-299.89,-2.63,0.77,2
21023,1.03,-8.15,19.98,-258.49,14.63,-0.7,2
21048,2.68,-5.35,19.98,-198.18,-12.44,-23.07,2
21073,1.62,-2.79,19.98,-132.88,23.17,-38.81,2
21098,-1.37,-3.05,19.98,-85.32,14.87,-33.62,2
21123,7.98,-3.61,19.98,-63.43,175.42,-6.12,2
21147,2.02,-1.02,19.22,-17.51,29.69,6.8,2
21172,1.84,0.08,17.09,-21.29,-54.33,-12.4,2
21198,0.91,-0.31,17.87,-3,-94.64,-24.05,2
21222,-1.73,-1,15.99,29.87,3.29,-15.27,2
21247,-3.2,-0.88,14.43,43.71,65.54,1.99,2
21271,-1.77,-0.7,13.65,50.47,82.19,10.22,2
21297,-3.21,-0.92,13.16,62.91,21.7,9.67,2
21321,-4.33,-1.53,11.65,63.46,20.61,19.49,2
21346,-5.19,-1.81,9.8,57.3,-6.65,41.86,2
21371,-4.63,-1.8,8.63,50.54,3.78,64.97,2
21396,-3.4,-1.6,8.07,43.28,11.03,78.27,2
21421,-2.91,-1.66,7.46,32.73,6.58,85.89,2
21445,-3.38,-1.94,6.59,20.23,6.7,93.75,2
21470,-2.8,-2.24,6.38,6.21,28.9,101.19,2
21495,-3.19,-3.33,6.97,-11.84,-7.57,114.48,2
21520,-3.71,-4.14,7.49,-24.77,-12.5,139.24,2
21545,-2.16,-4.01,8.76,-29.4,5.24,156.62,2
21569,-0.5,-4.21,9.81,-23.61,16.21,161.56,2
21594,-0.37,-5.58,10.18,-17.63,6.95,170.58,2
21619,0.67,-7.14,10.94,-12.27,15.97,189.79,2
21644,3.04,-7.57,12.15,-4.77,37.25,202.05,2
21669,6.03,-6.91,12.84,5.66,20.85,197.29,2
21694,7.46,-6.49,12.03,13.52,11.03,178.75,2
21719,8.21,-5.65,11.29,17.06,21.09,151.92,2
21743,8.59,-5.18,10.88,15.96,9.75,125.83,2
21769,8.06,-4.27,10.3,16.02,-1.04,101.19,2
21794,7.21,-3,9.7,18.4,0.54,74.36,2
21818,5.71,-2.6,8.89,18.65,-0.25,53.27,2
21843,4.52,-2.48,8.36,10.29,-31.59,42.47,2
21867,3.07,-1.9,8.45,0.6,-34.15,34.36,2
21893,2.47,-1.68,9.23,-6.54,-32.2,27.72,2
21917,2.14,-1.16,10.94,-10.07,-22.5,21.19,2
21942,1.76,-0.75,13.61,-6.78,-18.91,19.42,2
21967,2.25,-1.04,16.78,4.8,-13.3,16.13,2
21992,2.78,-1.04,19.95,23.34,-5.31,1.62,2
22017,2.8,-0.76,19.98,55.41,-12.38,-16.37,2
22041,1.14,-1.71,19.98,96.69,-26.41,-18.32,2
22066,0.95,-2.5,19.98,136.94,-11.59,-9.9,2
22091,1.73,-3.14,19.98,181.57,9.08,-5.03,2
22116,2.34,-3.73,19.98,222.55,7.13,-6.12,2
22141,2.15,-3.78,16.76,244.25,-9.94,-11.86,2
22165,1.6,-3.88,13.03,244.8,-44.09,-17.77,2
22191,1.39,-3.92,10.09,236.63,-70.74,-20.64,2
22215,0.92,-3.43,7.07,227.73,-82.2,-21.31,2
22240,1.37,-2.81,3.95,221.39,-80.86,-22.16,2
22266,2.1,-2.23,-0.58,206.02,-95.49,-25.27,2
22290,2.81,-2.05,-6.32,174.01,-106.71,-28.99,2
22315,3.63,-1.81,-11.07,119.07,-80.98,-35.39,2
22340,5.96,-1.57,-13.04,49.68,-70.31,-50.76,2
22365,6.74,-1.96,-14.65,-24.59,-90.74,-78.32,2
22389,5.91,-3.18,-15.03,-110.93,-114.27,-106.98,2
22415,5.12,-4.48,-12.52,-186.66,-93.36,-131.49,2
22440,3.82,-6.45,-9.77,-249.28,-101.22,-150.82,2
22465,0.37,-9.21,-6.6,-303.06,-73.91,-155.57,2
22490,-2.53,-11.85,-2.1,-354.52,-65.8,-141.55,2
22514,-5.29,-13.33,4.29,-399.34,-57.2,-120.33,2
22540,-7.17,-13.66,11.66,-419.76,-60.55,-90.39,2
22565,-8.53,-13.87,18.61,-406.11,-50.98,-41.49,2
22590,-7.5,-13.15,19.98,-365.07,-38.72,12.11,2
22615,-5,-12.74,19.98,-289.03,-29.21,58.88,2
22639,1.49,-10.46,19.98,-191.35,-17.5,78.27,2
22665,6.09,-7.27,19.98,-102.51,-9.46,53.94,2
22690,6.53,-6.55,19.98,-32.27,-19.7,15.34,2
22714,4.96,-5.99,19.98,35.84,-12.2,-1,2
22740,5.2,-5.08,19.98,115.17,10.85,-9.9,2
22764,5.08,-6,19.98,194.25,30,-18.38,2
22789,4.64,-7.66,19.98,254.13,33.23,-19.11,2
22813,4.85,-8.39,19.98,287.91,16.52,-22.1,2
22839,3.59,-8.92,16.53,299.98,-5.49,-28.2,2
22864,2.28,-8.76,11.85,298.22,-35,-33.62,2
22888,1.24,-7.87,7.24,286.57,-53.42,-34.96,2
22914,0.3,-5.75,2.34,262.42,-67.08,-37.22,2
22938,-1.4,-5.7,-1.2,223.22,-70.61,-28.87,2
22963,-0.61,-4.45,-4.08,178.77,-82.81,-12.47,2
22989,0.51,-1.94,-7.23,134.62,-73.91,-16.12,2
23013,1.18,-0.06,-8.9,87.61,-48.36,-28.38,2
23038,1.18,0.24,-9.43,39.56,-37.26,-34.05,2
23062,1.38,-0.06,-9.31,-6.96,-22.2,-41.12,2
23088,2.04,0.42,-8.47,-50.44,-1.96,-56.25,2
23112,1.53,0.67,-7.78,-93.97,-4.33,-74.05,2
23137,-0.37,0.02,-7.18,-139.71,1.09,-79.78,2
23162,-2.11,-0.86,-5.23,-184.58,4.63,-68.93,2
23187,-2.04,-1.82,-2.82,-229.03,-3.72,-55.15,2
23212,-1.95,-4.32,1.85,-271.9,-14.82,-38.38,2
23236,-1.47,-6.6,8.67,-297.02,-32.69,-19.66,2
23261,-0.29,-7.49,16.22,-292.14,-35.74,-10.76,2
23287,0.51,-7.56,19.98,-260.25,-47.93,-4.66,2
23311,2.68,-5.78,19.98,-212.45,-53.11,-0.51,2
23336,2.97,-3.7,19.98,-149.04,-33.42,-7.34,2
23361,2.49,-2.24,19.98,-74.16,-15.37,-8.2,2
23386,2.57,-2.03,19.98,-17.02,0.61,-6.37,2
23410,2.49,-2.32,16.28,0.66,3.9,-9.84,2
23435,1.82,-2.1,13.05,-9.77,-9.39,-12.89,2
23460,0.74,-1.62,12.42,-24.77,-22.32,-16.49,2
23485,-0.55,-1.28,13.04,-28.73,-24.64,-16.06,2
23510,-3.19,-0.99,14.55,-28.49,-30.19,-13.26,2
23534,-5.33,-1.28,16.18,-12.94,-30.37,8.27,2
23560,-5.67,-1.13,16.81,23.04,-4.39,40.34,2
23584,-4.15,-1.55,15.9,54.8,22.13,67.96,2
23609,-2.36,-2.24,14.28,72.06,31.4,88.69,2
23634,-0.95,-2.69,12.26,81.33,29.81,96.99,2
23659,-0.4,-3.33,9.82,83.28,23.78,101.01,2
23684,-0.65,-3.95,7.45,75.47,20.73,110.52,2
23708,-0.66,-4.51,5.84,65.35,21.82,129.42,2
23734,0.9,-4.15,4.03,54.44,23.9,139.42,2
23759,2.02,-3.68,2.74,33.28,22.74,132.47,2
23783,1.33,-3.61,2.69,6.39,3.35,124.3,2
23808,0.31,-3.96,2.63,-13.12,-12.57,127.17,2
23833,-0.49,-4.44,3.37,-28.79,-33.48,145.4,2
23858,-0.66,-4.81,4.82,-40.93,-30.55,167.11,2
23882,1.17,-5.08,7.26,-42.76,-26.22,179.67,2
23908,2.35,-5.41,9.75,-32.7,-20.67,184.91,2
23933,2.57,-6.41,10.15,-18.98,-23.6,184.97,2
23957,3.66,-7.51,10.68,-13.06,-2.32,182.96,2
23982,4.42,-8.05,12.42,-6.11,9.81,177.11,2
24007,6.61,-8.37,13.42,8.1,-12.87,166.92,2
24032,7.4,-8.15,12.39,15.23,-20.86,146.8,2
24057,8.82,-6.71,12.44,16.94,-6.89,113.63,2
24082,8.71,-5.48,12.98,23.22,7.31,77.35,2
24107,7.67,-5.13,12.5,29.01,-7.32,52.6,2
24131,7.21,-4.67,12.91,25.9,2.62,31.68,2
24156,7.29,-3.85,15.53,29.26,2.37,11.32,2
24181,7.24,-4.33,18.36,41.63,-20.43,-7.34,2
24206,6.66,-4.85,19.98,57.3,-45.13,-22.28,2
24231,6.63,-4.05,19.98,94.62,-22.26,-36.73,2
24255,7.28,-3.99,19.98,148.1,-20.98,-59.17,2
24281,5.4,-5.26,19.98,194.74,-41.28,-79.11,2
24305,3.32,-6.46,19.6,222.61,-40.98,-83.14,2
24330,3.37,-6.4,17.2,241.88,-45.86,-84.29,2
24356,2.59,-6.34,14.08,256.33,-65.61,-92.77,2
24380,0.85,-6.22,10.18,262.42,-66.41,-95.82,2
24406,-0.43,-5.77,6.33,255.78,-68.48,-89.72,2
24430,-0.97,-4.91,2.73,233.03,-105.8,-78.38,2
24455,-2.02,-3.94,-1.98,200.72,-137.75,-65.15,2
24480,-1.92,-1.84,-6.33,155.05,-138.6,-55.7,2
24505,-1.11,0.14,-8.85,108.64,-115.25,-48.26,2
24530,0.77,1.29,-11.73,57.55,-111.1,-49.42,2
24555,1.53,1.29,-13.8,-4.28,-100.31,-59.96,2
24580,1.34,0.79,-14.89,-70.62,-75.13,-71.31,2
24604,1.01,-0.46,-14.56,-135.8,-47.32,-75.82,2
24630,0.45,-1.97,-12.79,-199.95,-17.5,-84.78,2
24655,0.12,-4.04,-10.54,-259.95,-24.39,-95.15,2
24679,-3.61,-7.48,-8.2,-318.67,-26.28,-86.43,2
24705,-5.38,-10.27,-4.89,-366.9,-10.31,-60.45,2
24729,-5.7,-13.68,0.29,-402.63,12.37,-27.22,2
24754,-5.26,-15.04,6.81,-418.67,26.89,-7.04,2
24779,-4.57,-18.76,13.4,-416.41,-1.96,18.27,2
24804,-3.46,-19.65,19.98,-402.02,-27.5,54.85,2
24829,0.61,-19.48,19.98,-362.02,-28.91,73.08,2
24854,4.62,-16.38,19.98,-286.41,-38.11,69.36,2
24879,8.69,-13.69,19.98,-167.27,-31.41,52.96,2
24903,10.11,-12.43,19.98,-25.68,12.86,22.66,2
24929,9.7,-12.59,19.98,95.54,37.98,-5.33,2
24954,9.16,-12.67,19.98,190.35,29.75,-26.06,2
24979,7.94,-14.26,19.98,267.79,11.09,-38.07,2
25004,7.99,-15.88,19.98,329.13,-14.82,-48.32,2
25028,5.62,-16.46,19.98,380.84,-10.13,-78.5,2
25054,3.14,-16.63,14.18,411.08,18.11,-89.84,2
25079,-0.05,-15.98,6.45,406.93,-24.46,-81.49,2
25103,-2.38,-13.24,-1.35,364.13,-37.2,-68.99,2
25129,-3.8,-8.94,-7.03,300.72,-30.25,-50.7,2
25153,-2.2,-5.35,-9.89,229.86,-42.02,-27.22,2
25178,-0.3,-2.93,-11.13,156.88,-87.5,-19.72,2
25203,0.67,-1.16,-11.18,91.63,-97.02,-29.23,2
25228,1.07,-0.08,-10.24,40.9,-76.41,-43.14,2
25253,1.47,1.2,-8.77,0.05,-53.17,-54.84,2
25278,0.85,2.07,-6.76,-32.45,-40,-65.51,2
25303,0.16,2.39,-5.29,-58,-18.42,-70.7,2
25327,-1.33,1.99,-4.84,-90.8,-24.64,-72.77,2
25352,-2.6,0.6,-4.52,-128.55,-33.42,-53.93,2
25378,-1.75,-0.33,-3.49,-164.1,-17.69,-25.15,2
25402,0.48,0.48,-1.46,-192.39,-0.43,-24.11,2
25427,-0.17,-1.34,-0.91,-228.18,-22.14,-34.36,2
25451,-2.35,-5.52,1.02,-273.24,-41.59,-16,2
25477,-2.03,-7.61,7.68,-303.55,-10.55,16.74,2
25501,0.8,-6.79,16.69,-298.36,-13.24,20.1,2
25526,0.98,-7.56,19.98,-261.11,-17.93,14.49,2
25552,0.69,-6.78,19.98,-212.21,-14.82,19.61,2
25576,1,-3.95,19.98,-135.93,-1.65,31.99,2
25601,2.6,-0.68,19.98,-60.19,6.09,28.21,2
25626,2.09,-0.48,19.98,-19.4,-5.49,24.67,2
25651,-6.83,-1.3,2.42,42.61,-9.27,37.41,2
25675,7.3,-5.09,15.68,83.77,73.9,3.21,2
25700,3.26,-1.26,9.72,-2.57,-34.88,12.47,2
25725,4.1,-1.21,11.71,-30.13,-50,1.5,2
25750,3.53,-1.12,15.09,-11.72,10.97,-8.68,2
25775,1.41,-0.71,12.39,12.61,32.8,-21.25,2
25799,0.3,-1.41,12.59,52.18,19.02,-28.01,2
25824,-1.43,-2.08,10.6,66.88,36.09,-18.93,2
25850,-2.47,-1.59,8.79,61.15,15.61,-2.89,2
25874,-3.79,-0.67,7.76,45.78,2.43,13.63,2
25899,-5.46,-0.84,7.71,27.85,-15.8,35.95,2
25923,-5.38,-0.87,7.91,17.37,-18.42,67.41,2
25949,-4.6,-0.94,8,14.26,-19.15,95.46,2
25973,-3.09,-1.21,8.52,13.1,-0.19,111.31,2
25998,-2.33,-1.84,9.02,14.19,5.36,119.79,2
26023,-2.45,-2.76,8.97,16.27,13.29,134,2
26048,-1.95,-2.91,8.96,15.72,23.11,149.61,2
26073,-1.15,-3.81,9.18,15.17,32.43,161.31,2
26097,-0.29,-5.27,9.44,17.73,32.86,173.45,2
26122,1.26,-6.33,10.07,21.88,57.56,181.56,2
26148,2.56,-5.83,11.25,33.28,72.01,178.26,2
26172,3.37,-5.95,11.13,43.46,107.86,169.12,2
26198,4.26,-6.81,11.04,40.78,91.03,166.8,2
26222,5.36,-6.65,10.59,27,69.63,163.87,2
26247,6.85,-5.47,9.84,4.93,20.48,151.92,2
26271,7.96,-4.16,9.64,-17.76,-17.93,127.96,2
26297,7.84,-3.06,10.88,-29.22,-35.92,95.46,2
26322,7.35,-2.56,12.88,-28.67,-49.82,70.28,2
26346,6,-2.03,14.47,-23.61,-78.66,53.45,2
26372,4.24,-1.15,15.64,-10.62,-56.95,35.28,2
26396,4.1,-0.49,18.82,16.63,-9.33,19.79,2
26421,3.27,-1.62,19.98,41.45,-53.72,14.49,2
26446,3.06,-1.53,19.98,64.32,-73.24,9.24,2
26471,2.81,-1.34,19.98,103.89,-38.72,-2.4,2
26496,2.84,-2.77,19.98,154.93,-43.24,-5.57,2
26520,2.75,-4.07,19.98,198.77,-33.48,-2.77,2
26546,3.36,-4.7,17.3,226.81,-27.99,-4.9,2
26570,3.75,-4.85,14.07,241.27,-31.71,-12.16,2
26595,3.69,-4.92,11.12,245.29,-46.28,-19.29,2
26621,3.56,-4.3,8.39,243.95,-50.43,-27.59,2
26645,3.12,-3.76,5.41,236.57,-46.65,-35.94,2
26670,3.34,-2.82,2.29,220.6,-64.15,-40.33,2
26694,2.92,-1.63,-1.4,193.46,-84.7,-44.35,2
26720,2.44,-0.79,-4.45,157.18,-68.97,-47.16,2
26745,3.39,0.05,-6.42,112.79,-62.38,-49.9,2
26769,4.05,0.54,-7.56,62.79,-87.99,-55.82,2
26795,4.08,0.53,-8.72,9.68,-99.45,-66.98,2
26819,4.45,0.45,-9.42,-43.85,-88.6,-82.1,2
26844,4.02,-0.27,-9.58,-98.61,-90.31,-96.67,2
26868,2.82,-1.52,-10.06,-155.8,-92.81,-107.46,2
26894,1.75,-3.81,-10.15,-218.61,-70.31,-120.21,2
26919,0.31,-7.03,-9.95,-282.39,-42.02,-129.48,2
26943,-1.6,-10.03,-7.87,-349.64,-26.04,-133.68,2
26969,-3.55,-13.38,-4.17,-416.53,-44.64,-134.48,2
26993,-7.98,-19.2,3.51,-481.41,-56.35,-104.05,2
27019,-9.41,-19.65,17.14,-508.54,-53.72,-31.73,2
27044,-4.31,-19.31,19.98,-462.26,-68.66,28.88,2
27068,0.23,-10.65,19.98,-362.63,-50.92,51.92,2
27094,6.82,-10.15,19.98,-223.36,-27.63,40.77,2
27118,8.8,-9.18,19.98,-87.45,-27.63,13.45,2
27144,10,-7.87,19.98,33.65,-16.83,-12.59,2
27168,9.38,-6.48,19.98,137.79,22.98,-43.44,2
27193,6.91,-8.2,19.98,224.74,30,-61.55,2
27219,4.96,-11.11,19.98,282.97,10.61,-57.95,2
27243,4.39,-12.37,19.98,330.59,-4.7,-55.88,2
27268,2.7,-12.86,18.48,372,-5.19,-63.14,2
27293,0.35,-13.53,12.17,399.19,-2.32,-61.73,2
27318,-2.41,-12.99,5.42,400.11,-12.99,-45.03,2
27343,-2.71,-10.82,-2.17,366.14,-34.82,-22.46,2
27368,-3.22,-7.17,-8.97,297.48,-47.63,-7.16,2
27393,-2.78,-3.5,-13,218.77,-57.02,6.32,2
27417,-1.25,-1.52,-15.44,142.85,-66.35,17.29,2
27443,0.44,-0.52,-17.01,64.56,-60.86,18.39,2
27467,2.77,-1.04,-16.84,-16.72,-53.91,10.71,2
27492,4.08,-1.44,-15.23,-94.28,-53.6,-2.71,2
27517,5.35,-3.15,-11.66,-165.62,-30.8,-36.73,2
27542,5.48,-5.19,-8.97,-229.89,-40.06,-77.46,2
27567,1.22,-8.83,-5.02,-303.3,-83.91,-89.78,2
27591,-2.81,-8.89,1.98,-349.89,-36.71,-69.42,2
27617,-2.63,-8.17,9.39,-353.55,-10.86,-39.78,2
27642,-3.16,-6.8,15.29,-338.36,-20.55,-17.28,2
27666,-3.5,-6.36,19.98,-298.49,-27.02,17.53,2
27692,-0.34,-4.29,19.98,-235.62,-16.77,47.29,2
27716,3.69,-2.23,19.98,-174.52,-23.54,51.99,2
27741,5.36,-1.09,19.98,-128.3,-45.67,40.1,2
27767,5.37,-0.9,19.98,-70.8,-45.61,25.71,2
27791,3.86,-1.94,19.98,-10.87,-12.87,20.28,2
27816,3.56,-2.16,16.32,22.55,14.87,20.77,2
27841,3.92,-0.9,12.96,19.19,2.37,7.78,2
27866,1.73,-2.19,11.51,0.35,-28.6,-4.05,2
27890,-0.56,-2.68,11.78,-7.7,-28.17,6.19,2
27915,-0.52,-1.94,12.1,7.43,-8.17,19.06,2
27940,-0.46,-1.29,11.94,23.46,4.32,19.85,2
27965,-1.5,-1.11,11.25,35.72,9.02,20.89,2
27990,-3.02,-1.9,9.9,38.71,9.87,32.17,2
28014,-4.01,-1.75,8.31,31.33,9.45,55.1,2
28039,-4.18,-1.27,7.82,18.89,-4.46,83.02,2
28063,-3.76,-1.6,8.03,10.66,-12.02,111.56,2
28089,-2.7,-2.06,8.24,8.46,-4.52,134.48,2
28114,-1.69,-2.7,8.41,8.77,4.45,146.01,2
28138,-1.92,-4.32,8.05,11.09,2.68,163.39,2
28163,-1,-6.1,7.51,7.24,36.52,179.3,2
28188,1.52,-6.78,8.51,-4.95,39.14,184,2
28213,1.47,-7.77,9.9,-7.27,1.22,192.11,2
28238,2.27,-7.86,10.51,0.78,11.4,200.15,2
28262,3.73,-7.72,10.56,11.27,31.95,197.11,2
28288,5.54,-8.39,9.86,13.77,18.29,189.18,2
28312,5.67,-8.96,9.82,8.65,-19.33,184.55,2
28337,6.79,-9,10.43,7.43,-20.61,175.09,2
28361,8.39,-7.8,11.19,9.68,-24.76,147.59,2
28387,9,-7.07,12.14,19.5,-12.93,111.86,2
28412,8.22,-6.02,12.28,31.08,-30.74,79.3,2
28436,7.23,-5.61,12.65,33.34,-38.24,54.91,2
28462,5.66,-5.23,14.61,31.88,-28.24,37.17,2
28486,5.53,-3.89,19.7,44.87,-7.63,21.92,2
28511,5.84,-4.12,19.98,77.55,-56.04,10.4,2
28536,5.46,-4.5,19.98,128.89,-50.43,-2.65,2
28561,6.04,-5.55,19.98,191.21,-25.61,-20.45,2
28586,5.08,-7.34,19.98,245.66,-22.57,-35.51,2
28610,3.79,-8.19,19.31,279.07,-40.25,-42.77,2
28636,3.49,-8.52,15.45,298.89,-37.87,-45.27,2
28660,3.52,-8.74,11.17,303.46,-65,-46,2
28685,3.16,-8.13,6.55,293.46,-92.08,-51.31,2
28711,3.12,-7.21,2.05,275.47,-98.72,-58.62,2
28735,3.56,-6.09,-3.6,238.4,-134.88,-66.92,2
28760,3.25,-4.48,-9.37,180.84,-138.84,-80.33,2
28785,2.8,-3.87,-15.43,106.33,-141.16,-91.92,2
28810,1.89,-3.85,-19.22,17.49,-84.64,-96.67,2
28835,2.48,-4.07,-19.22,-74.77,-67.02,-108.2,2
28860,1.01,-5.45,-18.32,-162.08,-52.75,-126.67,2
28885,-0.37,-7.9,-16.25,-248.55,-44.58,-143.99,2
28910,-2.41,-10.19,-12.42,-332.69,-41.65,-152.4,2
28935,-5.46,-12.85,-7.04,-409.34,-73.66,-133.26,2
28959,-8.16,-16.41,0.76,-467.08,-85,-77.71,2
28985,-8.67,-19.53,11.39,-491.47,-71.28,-11.06,2
29010,-4.05,-19.65,19.98,-473.42,-43.24,46.38,2
29035,4.48,-17.79,19.98,-417.26,-48.72,58.21,2
29060,9.72,-15.46,19.98,-331.59,-66.41,36.56,2
29084,11.53,-13.11,19.98,-235.19,-37.75,-0.33,2
29110,12.5,-12.64,19.98,-114.4,-20.07,-29.05,2
29135,12.94,-11.13,19.98,25.66,29.87,-52.16,2
29160,11.92,-10.94,19.98,171.63,60.12,-75.7,2
29185,9.72,-12.76,19.98,299.98,74.32,-85.15,2
29209,8.17,-16.65,19.98,384.43,42.25,-86.24,2
29235,4.98,-18.54,19.98,427.24,13.84,-99.78,2
29259,1.52,-18.26,12.44,440.9,14.26,-109.9,2
29285,-2.03,-16.69,5.19,424.25,-22.81,-102.53,2
29310,-5.8,-14.5,-2.14,383.28,-47.44,-77.28,2
29334,-6.18,-10.11,-8.73,317.91,-60.25,-40.33,2
29360,-5.24,-5.83,-13.39,234.68,-82.81,-15.7,2
29384,-4.26,-2.56,-15.71,152.55,-76.47,-3.93,2
29409,-3.03,-1.02,-16.48,84.62,-66.41,8.27,2
29435,-1.67,-0.5,-17.02,17.43,-33.17,16.32,2
29459,0.69,0.44,-15.65,-52.76,-18.11,7.9,2
29484,1.65,0.64,-13.1,-113.61,-2.2,-14.78,2
29508,0.52,-0.59,-11.39,-175.68,-5.98,-34.78,2
29534,-2.12,-3.02,-8.47,-239.46,2.74,-32.71,2
29559,-1.91,-5.65,-4.08,-293.91,0.61,-7.95,2
29583,-0.95,-8.98,2.85,-339.28,-3.72,12.53,2
29609,2.9,-9.65,11.65,-350.8,7.37,21.99,2
29633,6.23,-7.42,19.42,-322.81,-4.94,0.77,2
29658,4.36,-6.96,19.98,-273.49,3.04,-23.32,2
29682,3.06,-5.66,19.98,-209.46,6.52,-23.99,2
29708,3.53,-2.81,19.98,-151.6,-15.98,-14.36,2
29733,3.66,-0.39,19.98,-100.38,-24.88,-11.12,2
29757,2.87,-0.08,19.98,-65.5,-15.67,-8.44,2
29783,2.32,0.47,19.98,-43.37,-20.8,-6.98,2
29807,1.53,0.52,18.41,-23.67,-24.52,-1.67,2
29832,1.11,-0.08,15.69,-2.39,-26.22,6.8,2
29856,0.94,-1.17,12.56,12.91,-8.17,16.56,2
29882,1.23,-1.22,10.99,15.48,12.8,17.6,2
29907,1.79,-1.66,10.33,12.85,6.09,13.14,2
29931,1.39,-2.63,9.53,9.01,-11.77,10.03,2
29956,0.6,-3.54,8.92,4.32,-27.57,13.82,2
29980,0.36,-3.73,8.61,1.57,-29.52,18.69,2
30006,0.44,-3.19,8.86,-0.62,-27.93,17.41,2
30031,-0.46,-3.07,8.89,1.02,-30.67,15.22,2
30055,-1.36,-2.95,8.61,6.63,-27.08,20.95,2
30080,-2.21,-2.61,8.31,9.56,-23.72,33.45,2
30104,-2.71,-2.56,8.12,8.83,-24.64,52.41,2
30130,-2.97,-2.75,8.36,8.52,-26.47,75.58,2
30154,-2.88,-3.02,8.7,10.29,-29.03,101.25,2
30179,-2.18,-3.45,8.97,13.77,-29.09,124.91,2
30204,-1.39,-4.35,9.06,20.6,-27.87,145.95,2
30229,-0.44,-5.33,9.16,28.58,-5.31,163.75,2
30254,0.71,-5.52,9.44,37.24,43.04,173.02,2
30278,2.51,-7.25,9.96,43.71,82.92,178.87,2
30303,4.19,-9.59,10.74,38.04,32.25,195.09,2
30329,5.03,-9.25,11.01,38.52,-10.13,210.76,2
30353,6.41,-8.6,11.66,50.84,28.04,210.34,2
30378,8.3,-8.11,12.11,67.06,44.08,198.94,2
30403,9.27,-7.43,11.19,79.74,25.3,176.5,2
30428,9.11,-6.71,9.53,80.54,20.12,145.52,2
30452,8.95,-5.41,8.6,68.04,25,115.22,2
30478,8.63,-4.14,8.72,47.06,-10,88.94,2
30503,7.72,-3.56,8.17,27.06,-50.74,71.56,2
30527,6.94,-3.47,8.81,12.67,-52.81,50.95,2
30552,6.18,-2.61,10.68,9.93,-48.6,29.49,2
30577,5.41,-1.92,12.14,14.01,-34.33,5.16,2
30602,4.17,-1.98,14.97,14.99,-34.39,-12.22,2
30627,3.14,-2.6,19.22,20.17,-31.28,-17.95,2
30651,4.01,-2.86,19.98,42.67,-38.78,-17.53,2
30677,5.04,-3.28,19.98,97.55,-72.08,-21.55,2
30701,5.97,-4.42,19.98,166.57,-54.15,-36.37,2
30726,5.85,-5.56,19.98,229.5,-34.94,-54.66,2
30751,4.71,-6.93,19.98,283.22,-19.94,-61.31,2
30776,3.72,-7.57,15.66,313.16,-24.33,-59.05,2
30801,2.92,-7.47,10.39,317.42,-42.26,-55.33,2
30826,2.18,-6.73,5.25,305.35,-63.3,-50.88,2
30851,1.41,-4.26,-0.54,280.05,-85.25,-47.83,2
30875,0.81,-2.89,-6.93,240.17,-85.55,-42.4,2
30901,1.49,-2.89,-13.24,164.86,-88.72,-30.45,2
30926,3.11,-2.18,-17.5,54.93,-102.2,-25.33,2
30950,5.49,-2.3,-17.51,-54.22,-128.72,-31.18,2
30976,6.35,-3.16,-15.46,-137.39,-127.69,-52.59,2
31000,6.56,-4.54,-12.27,-191.41,-78.97,-88.93,2
31026,3.89,-6.86,-10.04,-231.41,-60.25,-121.06,2
31050,0.5,-8.92,-8.68,-270.68,-27.93,-134.42,2
31075,-3.44,-11.74,-7.37,-319.7,-16.71,-123.56,2
31101,-5.08,-13.41,-4.69,-371.72,-8.17,-107.95,2
31125,-7.73,-15.63,-0.84,-422.14,-23.66,-82.95,2
31150,-9.4,-18.39,6.64,-459.89,-6.96,-39.17,2
31175,-8.33,-19.65,16.15,-464.82,-39.21,19.49,2
31200,-5.06,-19.65,19.98,-431.72,-86.41,86.56,2
31226,2.78,-16.87,19.98,-351.41,-48.6,121.07,2
31250,9.08,-14.54,19.98,-229.28,-33.17,104.67,2
31275,12.73,-14.39,19.98,-84.71,17.19,71.68,2
31300,13.86,-12.76,19.98,47.91,16.09,35.4,2
31325,15.16,-11.04,19.98,151.82,36.58,-17.89,2
31351,11.64,-12.12,19.98,240.9,21.09,-62.1,2
31375,7.74,-13.72,19.98,309.37,8.59,-70.15,2
31400,6.82,-14.63,19.98,355.78,3.72,-66.31,2
31425,6.38,-15.34,15.69,381.33,-10.13,-71.18,2
31450,5.1,-14.72,10.3,381.81,-27.26,-90.63,2
31474,2.57,-12.93,5.59,368.58,-37.81,-108.87,2
31500,0.3,-11.72,0.61,346.08,-46.22,-110.76,2
31525,-1.41,-9.21,-4.79,301.45,-62.02,-103.99,2
31550,-2.66,-8.21,-9.43,247.97,-65.25,-95.76,2
31575,-4.27,-2.48,-13.44,171.27,-65.31,-78.62,2
31599,-3.48,-1.76,-14.78,94.44,-50.67,-54.11,2
31625,-3.63,-0.83,-14.77,13.58,-50.49,-35.09,2
31650,-2.48,-0.58,-13.67,-64.28,-42.75,-23.26,2
31674,-1.95,-0.93,-11.37,-140.68,-57.32,-21.43,2
31700,-2.29,-2.47,-8.58,-207.63,-66.41,-10.7,2
31724,-1.31,-4.4,-5.98,-268.91,-67.81,-1.43,2
31749,-1.22,-6.16,-1.76,-326.05,-45.55,1.25,2
31773,-1.31,-8.87,4.38,-368.3,-40.98,18.51,2
31799,-1.73,-9.31,11.86,-379.64,-12.75,46.68,2
31824,-0.98,-9.39,19.98,-348.61,-28.24,77.41,2
31848,2.77,-7.34,19.98,-275.5,-34.27,107.41,2
31874,8.3,-5.12,19.98,-197.82,-3.78,99.12,2
31898,11.26,-2.47,19.98,-108.24,-13.54,60.77,2
31924,9.72,-1.58,19.98,-20.74,-11.47,18.21,2
31949,7.6,-1.3,19.98,-4.52,-95.55,-9.48,2
31973,4.66,-1.24,17.39,55.6,9.87,-3.62,2
31998,4.38,-0.38,13.4,52.12,-20.13,-1.61,2
32023,3.8,-0.06,11.44,27.43,-25.61,-8.38,2
32048,3.2,-0.48,10.68,14.32,-37.02,-17.46,2
32072,2.32,-1.18,9.79,11.69,-31.04,-25.57,2
32097,0.85,-1.98,8.92,18.77,-24.39,-23.68,2
32123,0.23,-2.57,8.04,29.44,1.22,-16.55,2
32147,0.34,-2.45,7.43,34.44,13.47,-10.09,2
32172,0.29,-1.88,6.3,33.95,2.98,-4.05,2
32196,-0.7,-1.47,5.24,22.91,6.09,0.34,2
32221,-1.34,-1.16,5.59,4.26,3.78,7.41,2
32245,-2.56,-0.81,6.89,-8.98,-2.93,22.6,2
32270,-3.33,-0.64,8.41,-8.37,8.96,45.52,2
32296,-2.71,-0.62,9.27,0.54,21.52,67.66,2
32320,-2.16,-1.17,10.51,5.29,22.37,86.13,2
32345,-1.47,-2.26,12.1,12.98,16.64,106.99,2
32369,0.06,-2.37,12.72,25.66,31.58,127.53,2
32395,1.72,-3,13.15,36.02,51.34,140.46,2
32420,2.98,-3.96,13.55,42.24,48.71,145.03,2
32444,3.7,-4.68,13.59,49.87,32.74,146.5,2
32470,4.02,-5.19,12.93,54.74,33.11,142.53,2
32494,4.74,-5.11,12.32,57.18,37.07,131.38,2
32519,4.87,-4.82,10.97,62.36,33.84,117.72,2
32544,4.58,-4.25,9.19,66.94,41.76,103.27,2
32569,3.72,-3.5,7.43,71.63,40.24,94.79,2
32594,2.84,-4.03,5.47,64.62,28.04,98.2,2
32618,2.28,-4.26,3.49,36.94,4.51,109.97,2
32644,2.61,-3.87,2.96,0.54,15.36,118.27,2
32668,3.94,-3.46,5.05,-35.01,2.98,119.61,2
32693,4.38,-3.39,7.4,-60.07,-21.77,119.55,2
32718,4.58,-4.16,11.46,-77.02,-11.16,115.89,2
32743,5.98,-3.66,18.07,-70.19,3.04,102.59,2
32768,7.34,-4.21,19.98,-30.5,-24.15,87.72,2
32792,9,-3.68,19.98,28.22,-49.88,59.67,2
32818,9.01,-3.72,19.98,96.27,-52.81,18.33,2
32842,6.99,-5.28,19.98,165.41,-48.91,-13.32,2
32867,5.5,-7.18,19.98,218.77,-49.52,-25.21,2
32893,5.14,-7.4,19.64,249.92,-59.09,-35.57,2
