t_ms,ax,ay,az,gx,gy,gz,label
5,-9.39,2.45,2.49,-3.43,-28.85,33.02,4
29,-9.33,2.69,2.46,-2.7,-28.17,24.55,4
54,-9.34,2.77,2.48,-1.23,-27.69,18.75,4
79,-9.43,2.76,2.28,-1.54,-25.25,13.27,4
103,-9.61,2.34,2.26,-4.16,-21.35,9.73,4
128,-9.61,2.37,2.56,-7.88,-44.7,10.28,4
152,-9.75,2.35,2.46,-11.05,-43.54,11.74,4
177,-10.04,2.05,2.66,-11.96,-30.43,14.73,4
201,-9.63,2.32,3.35,-10.68,-22.02,19.06,4
227,-9.62,2.12,3.59,-8.91,-41.65,23.08,4
252,-9.49,2.37,3.64,-6.48,-33.78,24.18,4
276,-9.82,2.16,3.66,-4.16,-17.87,24.49,4
301,-9.09,2.13,4.04,-3,-10.98,24,4
325,-8.51,2.36,4.25,-2.76,-16.89,22.78,4
350,-8.15,2.35,4.05,-2.39,-32.02,20.16,4
375,-7.97,3.22,4.3,-1.11,-18.6,14.91,4
399,-7.93,3.48,4.59,1.02,-1.77,8.69,4
424,-7.71,3.45,4.49,4.01,6.03,2.35,4
448,-8.05,3.33,4.29,6.94,0.18,-4.29,4
473,-8.36,3.19,4.29,7.85,6.95,-9.42,4
497,-9.61,2.94,3.93,7.3,32.01,-11.67,4
522,-9.84,2.78,4.59,9.99,62.5,-9.36,4
547,-10.43,3.11,4.42,12.67,45.97,-5.94,4
572,-10.53,3.1,4.24,17.91,43.84,0.64,4
597,-11.26,3.27,3.55,21.51,71.34,7.96,4
621,-10.82,3.12,3.48,26.69,102.43,17.23,4
646,-10,3.48,3.1,30.54,86.28,22.47,4
670,-10.07,3.29,2.33,31.76,60.6,25.34,4
695,-10.41,3.53,1.67,31.39,70.06,27.35,4
721,-10.04,3.61,1.83,33.4,97.25,28.02,4
745,-9.07,3.6,1.57,37.43,103.9,27.72,4
770,-8.84,3.85,0.91,38.71,77.56,23.33,4
794,-8.6,3.96,0.34,39.26,65.79,17.41,4
819,-8.95,3.85,-0.5,37.85,62.13,10.89,4
843,-8.49,3.93,-0.54,34.74,49.39,7.78,4
869,-8.65,4.13,-1.06,30.6,13.72,4.36,4
894,-8.72,4.08,-1.32,28.04,-9.88,0.64,4
918,-8.98,4.08,-1.73,24.68,-12.87,-3.2,4
943,-9.13,3.87,-1.93,20.78,-13.66,-5.21,4
967,-9.36,3.6,-2.22,14.62,-17.81,-6.25,4
992,-9.57,3.44,-2.42,5.96,-15.37,-6.98,4
1017,-9.45,3.5,-2.08,-3.12,-9.15,-7.16,4
1041,-9.36,3.48,-1.93,-10.81,-18.36,-5.94,4
1066,-9.08,3.66,-1.48,-16.11,-26.47,-6.12,4
1091,-9.03,3.65,-1.03,-19.22,-26.59,-8.62,4
1116,-9.1,3.7,-0.78,-20.2,-25.61,-12.16,4
1140,-9.21,3.7,-0.56,-21.05,-24.21,-16,4
1165,-9.34,3.61,-0.33,-21.66,-25.07,-18.93,4
1190,-9.6,3.54,-0.29,-21.6,-26.22,-20.21,4
1215,-9.98,3.42,-0.25,-22.33,-22.81,-20.27,4
1240,-10.07,3.34,-0.02,-23.37,-22.26,-18.14,4
1264,-10,3.35,0.22,-23.43,-18.78,-14.72,4
1289,-9.8,3.45,0.45,-21.84,-21.83,-12.4,4
1314,-9.62,3.38,0.52,-19.71,-15.98,-12.22,4
1339,-9.57,3.48,0.85,-17.63,-14.39,-14.66,4
1364,-9.63,3.33,0.86,-15.74,-11.89,-16.86,4
1388,-9.79,3.32,1.02,-13.55,-7.99,-17.4,4
1413,-9.77,3.4,1.17,-10.81,-6.53,-17.53,4
1437,-9.87,3.48,1.11,-8.61,-4.88,-17.4,4
1462,-10.32,3.22,1.03,-7.76,2.92,-16.43,4
1488,-10.6,2.98,1.19,-8.12,8.04,-14.11,4
1512,-10.61,2.84,1.24,-9.34,4.51,-10.64,4
1537,-10.32,2.72,1.31,-11.05,-3.24,-7.04,4
1561,-10.15,2.71,1.42,-12.02,-4.15,-4.72,4
1586,-9.95,2.58,1.54,-12.21,-3.97,-3.56,4
1610,-9.79,2.56,1.56,-11.48,-5.92,-3.81,4
1635,-9.66,2.62,1.57,-9.1,-4.03,-4.11,4
1660,-9.52,2.54,1.59,-6.35,-1.16,-5.64,4
1685,-9.64,2.52,1.64,-4.04,2.13,-8.62,4
1710,-9.75,2.55,1.54,-1.9,5.67,-12.1,4
1734,-10.15,2.54,1.57,-0.01,6.52,-13.14,4
1759,-10.38,2.54,1.23,0.17,3.17,-13.5,4
1784,-10.54,2.49,1.38,-0.2,2.25,-12.83,4
1808,-10.69,2.43,1.36,0.72,1.46,-10.57,4
1833,-10.63,2.43,1.27,2.18,-0.25,-8.32,4
1857,-10.83,2.41,1.04,3.4,6.28,-6.67,4
1882,-10.77,2.26,1.01,3.4,9.08,-4.72,4
1907,-10.77,2.12,0.82,2.3,5.67,-3.26,4
1932,-10.98,2.09,0.66,-0.13,4.81,-2.95,4
1957,-11.05,2.08,0.91,-2.63,11.09,-1.61,4
1981,-10.86,2.03,0.92,-3.91,5.12,0.52,4
2006,-10.72,1.9,0.94,-4.71,2.8,1.56,4
2030,-10.41,2.16,1.09,-5.13,-2.2,0.52,4
2055,-10.17,2.33,1.14,-3.49,-7.08,-0.21,4
2079,-10.23,2.26,1.04,-1.41,-3.36,-0.82,4
2104,-10.4,2.27,1.16,0.66,7.74,-1.06,4
2129,-10.43,2.37,1.3,4.44,5.67,0.46,4
2153,-10.61,2.32,1.28,8.89,5.3,2.96,4
2179,-10.7,2.21,1.1,11.88,9.87,6.07,4
2203,-10.73,2.04,0.86,11.88,11.95,9.85,4
2228,-10.64,2.02,0.67,9.68,11.09,14.3,4
2253,-10.27,2,0.6,7.98,4.14,17.9,4
2277,-9.98,2.19,0.62,6.15,3.29,17.9,4
2302,-9.65,2.21,0.65,3.89,2.86,15.64,4
2326,-9.49,2.37,0.58,2.18,-1.65,12.35,4
2351,-9.38,2.51,0.57,1.09,-5.49,8.69,4
2375,-9.46,2.55,0.66,0.17,-3.6,5.83,4
2400,-9.58,2.62,0.74,-0.2,-3.18,4.55,4
2426,-9.66,2.73,0.66,-0.07,-5.68,3.57,4
2450,-9.56,2.79,0.61,-1.05,-8.54,2.11,4
2475,-9.69,2.69,0.7,-1.54,-8.91,0.89,4
2499,-9.88,2.65,0.79,-1.78,-2.75,0.71,4
2524,-9.9,2.64,0.93,-1.72,-2.14,0.71,4
2548,-9.87,2.71,0.85,-1.48,-7.69,-0.15,4
2573,-9.96,2.7,1,0.29,-6.77,-1.18,4
2598,-10.07,2.64,0.97,2.73,-6.16,-1.92,4
2622,-10.09,2.75,0.86,4.8,-2.69,-3.44,4
2647,-10.16,2.68,0.71,5.9,3.72,-3.99,4
2671,-10.3,2.68,0.68,5.9,4.32,-4.17,4
2696,-10.31,2.88,0.87,4.93,5.73,-4.78,4
2720,-10.41,2.91,0.96,4.87,2.07,-3.99,4
2745,-10.43,2.89,1.07,5.72,-0.98,-1.31,4
2770,-10.5,2.87,1.09,7.55,-1.47,0.46,4
2795,-10.43,2.75,1.24,9.01,-0.74,1.56,4
2820,-10.2,2.7,1.01,10.11,-3.66,2.84,4
2844,-10.11,2.69,0.87,11.21,-2.87,3.69,4
2869,-9.87,2.82,0.87,11.69,-1.47,1.99,4
2894,-9.89,2.91,0.82,11.33,-0.43,-2.1,4
2918,-10.22,2.49,0.67,10.54,-2.87,-2.53,4
2943,-10.27,2.45,0.37,9.56,-5.86,-0.15,4
2967,-10.39,2.58,0.55,7.3,5.18,-0.45,4
2992,-10.32,2.53,0.64,3.52,-1.04,-0.39,4
3016,-10.27,2.28,0.56,0.17,-9.52,1.56,4
3042,-10.17,2.35,0.6,-1.05,-11.89,4.55,4
3067,-10.03,2.4,1.02,-0.56,1.95,7.84,4
3091,-9.53,2.49,1.11,0.48,0.85,9.18,4
3116,-9.11,2.93,1.24,1.39,3.11,6.86,4
3140,-8.81,3.48,1.13,3.22,3.84,2.78,4
3165,-9.16,3.61,1.11,6.09,5.3,-2.59,4
3189,-9.81,3.31,0.96,6.69,11.95,-8.68,4
3214,-10.73,2.77,0.65,4.07,6.76,-11.67,4
3239,-11.22,2.61,0.6,0.6,1.76,-8.07,4
3263,-11.26,2.49,0.67,-1.96,-5.68,-1.73,4
3288,-11.01,2.54,1.02,-3.43,-9.03,4.91,4
3312,-10.59,2.57,1.2,-2.15,-4.52,9.24,4
3338,-10.02,2.46,1.39,0.17,0,13.21,4
3363,-9.55,2.63,1.62,2.67,-0.37,12.9,4
3387,-9.18,2.75,1.79,4.74,-3.3,7.35,4
3412,-9.35,2.85,1.76,9.01,-4.58,-0.03,4
3436,-9.79,2.81,1.75,15.6,-9.39,-4.6,4
3461,-10.2,2.67,1.44,22.43,-10.8,-7.28,4
3485,-10.69,2.6,0.97,27.3,-4.64,-7.4,4
3510,-11.12,2.54,0.64,30.23,-0.49,-3.93,4
3535,-11.2,2.47,0.24,30.78,0.61,3.39,4
3560,-10.94,2.49,0.04,29.07,-0.19,11.62,4
3585,-10.35,2.66,-0.12,26.69,2.62,17.84,4
3609,-9.81,2.75,-0.13,23.71,4.57,19.97,4
3634,-9.43,2.67,-0.05,19.44,2.5,19.12,4
3658,-9.06,2.7,-0.12,14.99,-0.8,15.46,4
3683,-8.89,2.76,-0.03,12.37,-6.77,10.1,4
3708,-9.11,2.63,-0.06,10.17,-6.16,4.91,4
3733,-9.17,2.6,-0.23,6.94,-3.72,0.1,4
3758,-9.21,2.72,-0.21,2,-2.02,-4.23,4
3782,-9.45,2.96,-0.13,-1.78,-8.6,-7.28,4
3807,-9.76,3.03,0.02,-3.61,-4.88,-8.26,4
3832,-9.81,3.08,0.24,-4.65,-3.24,-8.56,4
3856,-9.85,3.13,0.57,-4.59,-3.66,-9.78,4
3881,-10.02,3.21,0.6,-2.82,-0.98,-12.4,4
3905,-10.33,3.29,0.74,-0.87,-0.92,-13.68,4
3930,-10.44,3.31,0.7,0.54,-2.26,-12.47,4
3954,-10.62,3.35,0.76,2.67,1.95,-9.72,4
3979,-10.6,3.33,0.65,4.19,5.67,-6.86,4
4004,-10.47,3.36,0.74,5.05,6.58,-5.76,4
4029,-10.52,3.31,0.63,5.35,2.92,-5.57,4
4054,-10.74,3.4,0.71,5.72,1.64,-5.94,4
4078,-10.97,3.37,0.75,7.24,0.3,-3.56,4
4103,-11,3.13,0.66,8.95,0.91,3.21,4
4127,-10.82,2.91,0.65,10.96,0.97,11.13,4
4152,-10.29,2.88,0.68,11.88,2.68,16.86,4
4177,-10.01,2.96,0.79,12.73,7.07,19.42,4
4201,-9.6,2.94,1.11,16.21,12.19,20.22,4
4227,-9.43,2.92,0.73,19.56,10.3,18.39,4
4251,-9.31,2.85,0.37,20.41,8.47,14.55,4
4276,-9.5,2.76,-0.05,17.61,8.17,10.77,4
4301,-9.66,2.74,-0.07,14.5,14.87,9.49,4
4325,-9.61,2.68,-0.27,11.45,5.91,9.06,4
4350,-9.28,2.78,-0.2,8.1,0.61,6.07,4
4374,-9.13,2.96,-0.3,2.91,-0.37,2.05,4
4399,-9.08,3.08,-0.14,-2.33,-8.78,-0.88,4
4423,-9.14,3.22,0.07,-5.07,-11.28,-2.95,4
4448,-9.05,3.28,0.54,-4.22,-8.85,-4.78,4
4473,-9.19,3.41,0.5,-0.93,-10.25,-6.98,4
4498,-9.43,3.36,0.4,2.43,-5.8,-10.21,4
4523,-9.87,3.22,0.34,3.59,-1.35,-12.53,4
4547,-10.28,3.2,0.21,3.83,5,-12.34,4
4572,-10.6,3.06,0.07,3.52,1.4,-8.93,4
4596,-10.64,3.05,-0.03,2.37,-2.57,-5.64,4
4621,-10.6,3.03,0.05,1.27,-4.76,-3.56,4
4646,-10.83,3.08,0.03,0.96,-2.26,-2.65,4
4670,-10.76,3.13,-0.06,1.15,2.07,-0.15,4
4695,-10.5,3.12,-0.26,0.54,1.28,3.82,4
4719,-10.2,3.13,-0.39,-2.63,2.31,5.64,4
4745,-9.92,3.22,-0.23,-6.35,2.19,5.71,4
4770,-9.68,3.19,-0.32,-9.83,-1.35,4.91,4
4794,-9.52,3.11,-0.17,-12.39,-3.42,3.27,4
4819,-9.41,3.13,0.09,-14.1,-3.97,1.5,4
4843,-9.29,3.13,0.33,-14.59,-2.14,-1.67,4
4868,-9.2,3.14,0.45,-15.26,-3.54,-5.76,4
4892,-9.28,3.14,0.56,-15.5,-5.98,-9.42,4
4917,-9.54,3.09,0.66,-14.71,-5.92,-12.65,4
4942,-9.81,2.99,0.93,-13.79,-3.78,-14.29,4
4966,-9.99,2.98,1.09,-12.94,-7.5,-13.99,4
4992,-10.43,2.88,1.08,-11.6,-6.53,-11.12,4
5016,-10.49,2.78,1.32,-8.37,-4.76,-6.67,4
5041,-10.5,2.76,1.34,-5.07,-3.05,-3.32,4
5065,-10.35,2.66,1.18,-2.39,-0.13,-1.12,4
5090,-10.27,2.63,1.1,-0.62,-1.16,-0.39,4
5115,-10.09,2.72,1.09,0.35,-0.86,-0.88,4
5139,-10.1,2.65,1,0.54,-0.07,-1.73,4
5164,-10.1,2.6,0.88,-0.74,-4.82,-0.76,4
5188,-9.91,2.56,0.87,-0.62,-9.21,1.25,4
5213,-9.66,2.55,0.94,1.63,-3.48,1.13,4
5237,-9.58,2.44,0.87,2.79,0.97,-3.56,4
5263,-9.65,2.36,0.73,2.3,0.91,-9.17,4
5288,-9.97,2.59,0.69,1.76,-0.37,-13.26,4
5312,-10.29,2.6,0.71,1.45,1.7,-13.01,4
5337,-10.34,2.75,1.01,2.55,0.24,-11.61,4
5361,-10.44,2.89,1.04,4.74,1.03,-11.67,4
5386,-10.53,3.07,1.06,7.49,-0.13,-13.14,4
5411,-10.92,3.13,0.88,10.48,-0.8,-12.34,4
5435,-11.33,3.09,0.63,12.79,2.07,-7.4,4
5461,-11.16,2.78,0.45,13.22,7.31,0.1,4
5485,-10.78,2.61,0.41,11.09,2.62,5.64,4
5510,-10.34,2.7,0.41,8.83,-3.36,7.41,4
5534,-10.1,2.69,0.39,6.63,-3.66,6.8,4
5559,-9.91,2.57,0.46,5.66,-3.91,5.95,4
5584,-9.92,2.47,0.52,3.95,-1.41,4.24,4
5608,-10.04,2.49,0.54,1.45,-2.75,2.41,4
5633,-10.28,2.52,0.61,-0.32,-7.75,1.99,4
5657,-10.42,2.42,0.63,-1.84,-11.04,4.18,4
5682,-10.43,2.4,0.59,-2.39,-11.65,7.96,4
5707,-10.12,2.29,0.59,-3.43,-8.91,11.25,4
5732,-9.54,2.26,0.56,-5.93,-9.82,11.74,4
5757,-9.09,2.44,0.77,-8,-14.15,8.02,4
5781,-9.13,2.56,1,-8.18,-12.75,3.08,4
5806,-9.22,2.51,1.03,-6.96,-10.8,-1.06,4
5830,-9.33,2.42,1.04,-6.29,-7.38,-4.17,4
5855,-9.47,2.4,1.29,-6.05,-7.14,-7.34,4
5880,-9.67,2.48,1.38,-5.93,-6.71,-10.7,4
5904,-10,2.58,1.6,-3.73,-9.39,-13.26,4
5929,-10.32,2.58,1.66,0.23,-4.88,-14.96,4
5953,-10.79,2.61,1.61,4.87,-3.66,-15.76,4
5979,-11.29,2.63,1.32,8.89,2.13,-15.33,4
6003,-11.9,2.46,1.17,12.37,12.07,-10.39,4
6028,-12.13,2.06,0.84,12.85,8.96,0.16,4
6053,-11.62,2.06,0.58,10.41,9.2,12.6,4
6077,-10.52,2.38,0.56,6.51,4.26,19.3,4
6102,-9.74,2.62,0.66,3.77,3.9,17.72,4
6127,-9.37,2.78,0.82,1.15,5.85,10.77,4
6152,-9.46,2.87,0.69,-0.5,-0.43,2.84,4
6176,-9.93,2.76,0.65,-2.27,1.7,-1.25,4
6201,-10.19,2.66,0.69,-3.55,-1.59,0.77,4
6226,-10.04,2.86,0.99,-3.55,-1.35,5.03,4
6250,-9.66,3.04,1.14,-1.84,0.48,6.25,4
6275,-9.54,3.02,1.23,0.48,1.15,6.5,4
6299,-9.56,2.89,1.19,2.49,3.23,6.32,4
6324,-9.46,2.84,0.98,2.98,2.98,4.06,4
6349,-9.69,2.67,0.73,1.69,0.48,1.62,4
6373,-10.23,2.49,0.55,-0.56,-1.47,1.32,4
6398,-10.52,2.37,0.44,-3,6.58,4.61,4
6422,-10.32,2.38,0.62,-5.38,3.84,9.06,4
6447,-9.82,2.47,0.59,-7.45,5.3,9.91,4
6471,-9.33,2.58,0.82,-9.71,2.98,5.95,4
6496,-9.17,2.8,0.91,-11.78,-3.42,-0.94,4
6522,-9.51,2.84,1,-12.94,-1.04,-7.4,4
6546,-9.98,2.87,1.23,-12.27,-2.99,-10.15,4
6571,-10.31,2.88,1.27,-10.2,-4.52,-8.62,4
6595,-10.58,2.81,1.57,-7.02,2.5,-5.76,4
6620,-10.68,2.82,1.69,-2.76,1.82,-2.4,4
6644,-10.63,2.72,1.35,0.78,3.78,0.58,4
6669,-10.41,2.65,1.21,2.73,5.97,2.9,4
6694,-10.26,2.68,0.98,2.98,4.2,3.69,4
6718,-10.05,2.65,0.71,1.15,5.48,3.51,4
6743,-9.65,2.69,0.79,-2.21,1.15,3.21,4
6767,-9.49,2.8,0.8,-5.81,-1.71,1.68,4
6793,-9.3,2.83,0.91,-7.63,-3.72,-0.27,4
6818,-9.3,2.85,1,-8.67,-4.15,-5.15,4
6842,-9.49,2.79,1.1,-9.04,-5.13,-10.27,4
6867,-9.94,2.71,1.08,-8.55,-9.33,-12.71,4
6891,-10.27,2.68,1.14,-6.54,-6.28,-12.1,4
6916,-10.44,2.62,1.14,-5.38,-4.94,-9.29,4
6940,-10.37,2.63,1.15,-4.22,-4.27,-6.25,4
6965,-10.2,2.72,1.35,-1.35,-3.78,-6.06,4
6990,-10.19,2.7,1.31,2.55,-2.93,-7.47,4
7014,-10.49,2.58,1.16,6.02,2.5,-6.73,4
7040,-10.63,2.42,1.03,7.85,12.01,-3.99,4
7064,-10.46,2.35,0.76,6.88,9.08,-1.12,4
7089,-10.18,2.34,0.68,4.19,4.51,-0.33,4
7113,-10.05,2.41,0.72,0.72,0.54,-2.4,4
7138,-10.19,2.46,0.76,-1.66,-0.98,-5.15,4
7163,-10.44,2.4,0.72,-3.79,0.3,-5.82,4
7187,-10.45,2.35,0.81,-5.07,-1.77,-3.5,4
7212,-10.45,2.31,0.89,-5.44,-2.5,-1.31,4
7236,-10.29,2.32,1.05,-5.26,-2.69,0.95,4
7261,-9.98,2.33,1.1,-4.28,-1.77,2.29,4
7285,-9.64,2.3,1.21,-3.18,-0.55,0.58,4
7310,-9.67,2.21,1.2,-2.94,1.7,-3.38,4
7336,-9.66,2.25,1.3,-3.37,-0.61,-7.16,4
7360,-9.84,2.2,1.21,-2.88,-4.94,-8.62,4
7385,-10.09,2.15,1.21,-2.45,-3.05,-9.11,4
7409,-10.28,2,1.14,-2.63,1.4,-7.16,4
7434,-10.08,2.11,1.32,-2.45,-0.74,-5.03,4
7459,-9.97,2.13,1.31,-2.21,-0.43,-5.76,4
7483,-10.07,2.2,1.27,-1.41,-1.22,-7.47,4
7508,-10.2,2.14,1.42,0.17,0.67,-6.43,4
7532,-10.27,2.18,1.25,1.45,3.29,-5.51,4
7557,-10.33,2.18,1.29,1.39,4.39,-5.94,4
7581,-10.31,2.15,1.2,1.15,0.36,-5.7,4
7606,-10.4,2.2,1.21,2.06,-1.71,-4.6,4
7632,-10.38,2.03,1.12,2.98,-0.37,-2.1,4
7656,-10.21,1.94,1.15,2.79,2.98,-1.37,4
7681,-9.98,2.03,1.08,1.51,2.01,-3.81,4
7705,-10.13,2.05,1.16,1.39,-4.03,-6.98,4
7730,-10.52,2.02,1.03,2.37,-0.98,-8.56,4
7754,-10.75,2.03,0.91,2.67,3.9,-7.95,4
7779,-10.76,2.03,1,2.06,0.97,-5.15,4
7804,-10.89,2.06,0.75,1.57,1.58,-2.16,4
7828,-10.81,1.93,0.85,1.15,1.09,1.5,4
7853,-10.49,1.9,0.92,0.78,1.28,3.82,4
7877,-10.24,1.9,0.95,0.41,2.13,4.43,4
7902,-10.07,1.98,0.98,0.11,3.17,4.67,4
7927,-9.73,2.04,1.08,-0.26,4.51,4.06,4
7952,-9.52,1.98,1.13,-0.74,4.63,0.83,4
7977,-9.64,2.01,1.26,-1.29,3.35,-4.11,4
8001,-9.98,1.99,1.38,-0.44,0.3,-8.32,4
8026,-10.46,1.85,1.35,1.45,0.97,-8.2,4
8050,-10.77,1.7,1.37,3.4,2.8,-4.54,4
8075,-10.74,1.61,1.27,4.19,4.14,-0.57,4
8100,-10.54,1.69,1.3,4.87,-0.19,1.99,4
8124,-10.28,1.68,1.11,4.8,-2.26,3.02,4
8149,-10.09,1.72,1.18,4.68,-3.18,3.63,4
8173,-9.9,1.69,1.03,4.07,-2.32,3.75,4
8198,-9.68,1.69,0.91,2.67,-2.93,2.84,4
8222,-9.62,1.7,0.96,1.39,-4.27,-0.09,4
8247,-9.75,1.63,0.94,0.29,-5.68,-3.44,4
8272,-10.04,1.65,0.87,-0.56,-5.98,-5.45,4
8296,-10.21,1.57,0.85,-1.6,-4.09,-5.51,4
8322,-10.35,1.57,0.88,-3.43,-3.66,-4.97,4
8346,-10.31,1.62,0.93,-5.32,-5.61,-4.78,4
8371,-10.2,1.67,1.07,-6.17,-6.83,-5.57,4
8395,-10.26,1.75,1.18,-5.81,-5.92,-6.55,4
8420,-10.29,1.82,1.37,-4.16,-3.54,-7.28,4
8445,-10.33,1.96,1.57,-1.54,-1.89,-8.2,4
8469,-10.5,1.96,1.54,2,0.12,-8.87,4
8494,-10.95,1.91,1.4,6.02,2.43,-8.32,4
8518,-11.23,1.86,1.23,9.26,6.46,-6.43,4
8543,-11.36,1.72,0.94,10.05,8.47,-4.17,4
8569,-11.36,1.58,0.61,8.28,6.34,-1.18,4
8593,-11.22,1.69,0.56,5.05,-0.43,2.9,4
8618,-10.92,1.83,0.53,2.79,-2.5,7.53,4
8642,-10.42,1.84,0.66,0.11,0.79,10.1,4
8667,-9.99,1.92,0.76,-2.63,-2.5,9.36,4
8691,-9.77,1.91,0.92,-4.95,-7.5,6.62,4
8716,-9.82,1.85,1.1,-7.27,-9.64,4.24,4
8741,-9.96,1.69,1.11,-9.34,-14.21,4.91,4
8765,-9.79,1.6,1.41,-10.56,-15.19,8.27,4
8790,-9.37,1.59,1.5,-10.62,-12.63,10.71,4
8815,-8.95,1.58,1.79,-9.22,-10,9,4
8840,-9.1,1.52,1.61,-8,-4.52,2.9,4
8864,-9.41,1.4,1.55,-7.09,2.8,-2.71,4
8889,-9.6,1.4,1.53,-6.66,2.43,-6.92,4
8914,-9.82,1.37,1.67,-7.27,6.95,-10.76,4
8938,-10.06,1.33,1.81,-7.09,7.25,-14.6,4
8963,-10.21,1.54,1.99,-4.77,6.09,-16.61,4
8987,-10.27,1.72,2.11,-0.87,8.41,-17.04,4
9012,-10.42,1.88,2.21,3.46,8.96,-16.31,4
9037,-10.55,2.06,2.22,8.4,9.69,-15.09,4
9062,-10.69,1.97,2.1,14.19,7.86,-13.87,4
9087,-11.04,1.7,1.66,18.34,7.25,-12.65,4
9111,-11.31,1.37,1.24,19.13,7.25,-10.39,4
9136,-11.51,1.19,1.01,17.79,8.41,-8.2,4
9160,-11.58,1.17,0.83,15.54,3.29,-5.03,4
9185,-11.71,1.2,0.57,12.49,1.7,-0.7,4
9211,-11.4,1.34,0.47,8.95,0.12,4.12,4
9235,-10.9,1.49,0.45,5.6,-0.19,7.84,4
9260,-10.54,1.67,0.53,2.91,1.09,9.36,4
9284,-10.2,1.71,0.73,0.84,0.48,9.61,4
9309,-9.84,1.71,0.77,-0.38,-1.65,9.55,4
9333,-9.69,1.67,1.01,-0.74,-1.89,7.66,4
9358,-9.78,1.56,1.21,-0.32,0.61,4.49,4
9383,-9.9,1.6,1.27,1.09,-1.89,0.52,4
9407,-10.11,1.51,1.41,3.95,-4.64,-1.31,4
9432,-10.38,1.38,1.27,7.61,-5.31,-0.76,4
9456,-10.5,1.41,1.22,10.29,2.92,1.5,4
9481,-10.42,1.45,0.94,11.94,0.79,3.69,4
9507,-10.34,1.48,0.76,12.3,3.17,4.18,4
9531,-10.47,1.55,0.68,11.15,5.48,4.3,4
9556,-10.59,1.49,0.7,10.54,13.65,5.28,4
9580,-10.69,1.33,0.55,10.84,11.22,8.21,4
9605,-10.66,1.17,0.34,10.54,8.35,11.07,4
9629,-10.36,1.14,0.14,8.52,9.08,11.68,4
9654,-10.09,1.2,0.08,4.93,10.48,10.1,4
9680,-9.88,1.38,0.07,-0.13,11.28,7.6,4
9704,-9.73,1.51,0.13,-5.2,6.82,5.46,4
9729,-9.51,1.72,0.35,-9.4,-0.25,3.02,4
9753,-9.56,1.91,0.53,-12.45,-3.78,-0.15,4
9778,-9.78,1.96,0.8,-13.3,-3.48,-2.47,4
9802,-9.88,1.96,0.98,-11.6,-1.41,-3.14,4
9827,-10.01,2.02,0.99,-8.98,-0.61,-4.17,4
9852,-10.25,1.86,1.02,-7.63,-1.04,-4.9,4
9876,-10.39,1.78,0.98,-6.96,-1.22,-4.66,4
9901,-10.46,1.75,1.04,-6.78,-1.53,-3.93,4
9925,-10.39,1.78,1.17,-7.02,-1.41,-2.28,4
9951,-10.24,1.72,1.14,-7.33,-2.38,-0.57,4
9976,-10.08,1.7,1.15,-7.45,-2.75,-0.57,4
10000,-9.93,1.82,1.33,-7.82,-3.6,-2.89,4
10025,-9.95,1.77,1.36,-7.88,-8.42,-5.09,4
10049,-10.26,1.57,1.33,-7.57,-9.88,-6.06,4
10074,-10.27,1.41,1.38,-7.09,-11.53,-4.78,4
10098,-10.18,1.3,1.44,-5.32,-11.71,-3.56,4
10123,-10.19,1.21,1.6,-2.39,-6.04,-4.6,4
10149,-10.32,1.15,1.57,1.15,-2.5,-7.53,4
10173,-10.49,1.29,1.41,3.89,-2.14,-10.7,4
10198,-10.89,1.14,0.98,5.54,-2.32,-9.6,4
10222,-11.06,1.08,0.83,6.21,-0.43,-4.97,4
10247,-10.69,1.17,0.77,4.99,1.95,-0.94,4
10271,-10.3,1.42,0.66,2.61,2.19,-0.21,4
10296,-10.13,1.55,0.86,0.96,1.46,-2.04,4
10322,-9.98,1.6,0.86,0.17,-2.32,-3.32,4
10346,-9.86,1.71,1.02,0.17,-0.07,-4.66,4
10371,-9.82,1.74,1.11,0.72,2.5,-7.1,4
10395,-9.99,1.73,1.42,1.09,1.7,-11.12,4
10420,-10.41,1.73,1.32,1.88,-1.1,-15.09,4
10445,-10.96,1.46,1.54,4.19,-6.04,-17.16,4
10469,-11.65,1.31,1.71,8.4,-4.64,-14.84,4
10495,-11.89,1.29,1.62,14.87,0.73,-7.22,4
10519,-11.79,1.16,1.36,21.39,10.06,2.29,4
10544,-11.32,1.14,0.88,24.5,12.92,9.79,4
10568,-10.84,1.17,0.51,22,15.06,13.63,4
10593,-10.23,1.26,0.41,16.57,12.37,14.67,4
10619,-9.88,1.36,0.26,11.27,6.28,12.78,4
10643,-9.81,1.31,0.17,6.82,1.4,9.55,4
10668,-10.03,1.27,0.29,2.43,-1.96,7.17,4
10692,-10.06,1.14,0.26,-1.29,-4.76,6.44,4
10717,-10.24,1.09,0.32,-4.46,-5.07,6.38,4
10741,-10.15,0.99,0.43,-7.51,-3.72,6.74,4
10766,-10.04,1.02,0.4,-10.62,-6.16,5.95,4
10792,-9.92,1.18,0.62,-13,-8.85,3.27,4
10816,-9.8,1.16,0.67,-15.2,-10.07,0.34,4
10841,-9.98,1.12,0.81,-15.26,-8.42,-1.43,4
10865,-9.88,1.33,1.05,-14.59,-1.53,-4.29,4
10890,-9.83,1.36,1.25,-15.07,-0.8,-6.37,4
10915,-9.71,1.39,1.4,-15.62,-4.82,-6.92,4
10940,-9.67,1.47,1.73,-13.98,-7.44,-8.81,4
10965,-9.75,1.6,1.94,-9.59,-6.53,-13.75,4
10989,-10.05,1.47,2.11,-4.65,-5.07,-19.36,4
11014,-10.77,1.32,1.9,0.29,-5.19,-22.1,4
11038,-11.16,1.1,1.7,3.77,-4.27,-20.27,4
11063,-11.46,1.09,1.64,5.05,-0.61,-14.78,4
11089,-11.37,1.07,1.63,5.23,-1.16,-6.67,4
11113,-10.97,1.15,1.54,6.39,-4.09,-0.88,4
11138,-10.59,1.16,1.51,7.98,-3.42,-0.03,4
11162,-10.58,1.13,1.42,9.62,-1.96,-1.12,4
11187,-10.81,1.03,1.08,10.23,-0.86,-0.51,4
11211,-10.87,0.99,0.8,9.19,-0.92,2.05,4
11236,-10.64,1.01,0.74,6.69,2.13,4.36,4
11262,-10.45,1.05,0.84,4.07,3.04,4.85,4
11286,-10.27,1.11,0.86,2.06,0,3.33,4
11311,-10.17,1.29,0.97,0.72,-3.48,1.68,4
11335,-10.2,1.42,1.18,1.33,-3.36,1.38,4
11360,-10.33,1.4,1.36,3.34,0.42,2.05,4
11385,-10.22,1.27,1.31,5.29,3.84,2.41,4
11409,-10.38,1.14,1.19,5.29,2.92,1.44,4
11435,-10.73,0.92,0.99,3.46,1.58,0.95,4
11459,-11.01,0.83,1.13,1.39,0.36,2.23,4
11484,-10.95,0.95,1.08,0.54,-1.04,5.22,4
11508,-10.7,0.94,0.98,0.48,0.85,8.27,4
11533,-10.48,0.96,1.12,-0.01,2.19,9.36,4
11558,-10.17,1.08,1.11,-0.01,5.3,8.27,4
11582,-10.02,1.11,1.16,-0.07,5.67,7.05,4
11607,-9.89,1.07,1.06,-1.23,3.72,5.89,4
11631,-9.83,1.15,1.2,-2.45,0.91,4.06,4
11656,-9.78,1.29,1.47,-2.76,1.7,1.56,4
11682,-9.84,1.32,1.57,-1.35,0.12,-1.06,4
11706,-10.12,1.36,1.68,1.33,0,-3.99,4
11731,-10.29,1.36,1.66,3.77,-0.49,-5.82,4
11755,-10.53,1.32,1.5,5.66,-2.5,-5.33,4
11780,-10.83,1.4,1.49,7.3,-1.35,-2.83,4
11804,-10.88,1.35,1.27,8.52,-0.13,0.83,4
11829,-10.59,1.34,1.19,8.71,-0.19,4.61,4
11854,-10.17,1.32,1.03,7.91,-1.65,6.5,4
11879,-9.89,1.19,0.95,5.41,-1.77,5.34,4
11904,-9.83,1.18,0.95,2.61,-2.63,1.38,4
11928,-9.92,1.21,0.93,-0.01,-4.82,-2.34,4
11953,-10.4,1.18,1.1,-2.57,-8.66,-2.04,4
11977,-10.53,1.14,1.16,-3.91,-10.98,1.25,4
12002,-10.45,1,1.16,-3.06,-9.27,3.02,4
12027,-10.28,0.94,1.33,-1.54,-4.52,0.83,4
12051,-10.52,0.83,1.03,-0.62,-1.59,-2.83,4
12077,-10.86,0.84,0.77,-2.33,-0.13,-5.15,4
12101,-10.95,1.01,0.7,-4.83,-1.59,-3.01,4
12126,-10.69,1.18,0.85,-6.54,-0.19,1.8,4
12151,-10.13,1.51,1.22,-7.27,0.91,3.02,4
12175,-9.72,1.67,1.49,-6.66,2.31,-0.45,4
12200,-9.86,1.73,1.75,-4.28,-0.13,-5.76,4
12224,-10.57,1.6,1.67,-0.01,0,-8.01,4
12249,-11.18,1.42,1.53,4.5,3.9,-5.39,4
12274,-11.2,1.13,1.21,5.41,9.14,0.22,4
12299,-10.87,1.18,1.05,3.28,6.7,4.67,4
12324,-10.49,1.41,1.31,1.02,2.5,6.01,4
12348,-10.04,1.69,1.55,0.54,0.36,4.91,4
12373,-9.99,1.72,1.62,1.82,2.13,3.69,4
12397,-10.15,1.62,1.59,4.19,3.47,3.14,4
12422,-10.28,1.44,1.51,5.41,5.48,3.69,4
12446,-10.35,1.09,1.27,4.62,3.65,6.56,4
12472,-10.18,1.01,1.27,2.24,0.42,8.39,4
12497,-10.06,1.03,1.23,-0.38,-2.2,7.17,4
12521,-9.78,1.23,1.16,-2.27,-5.92,5.03,4
12546,-9.72,1.29,1.17,-2.63,-7.44,3.63,4
12570,-9.64,1.25,1.13,-3.31,-2.38,2.47,4
12595,-9.47,1.09,1.14,-5.26,-1.77,0.03,4
12619,-9.38,1.27,1.4,-7.09,-3.85,-5.03,4
12644,-9.58,1.12,1.74,-6.72,-5.92,-10.39,4
12669,-10.02,1.11,1.95,-5.01,-11.1,-15.82,4
12694,-10.6,1.06,2.07,-1.78,-8.42,-18.56,4
12719,-11.17,1.07,1.94,3.4,-9.39,-17.22,4
12743,-11.82,1.09,1.65,7.79,-1.28,-11.73,4
12768,-11.9,0.8,1.36,9.93,5.54,-2.16,4
12793,-11.41,0.63,1.03,9.32,1.09,7.66,4
12817,-10.51,0.84,0.94,6.57,3.11,12.35,4
12843,-9.73,1.08,0.99,4.32,6.7,11.86,4
12867,-9.14,1.3,1.06,2.49,5.85,7.23,4
12892,-8.89,1.45,1.07,0.72,6.28,0.16,4
12916,-9.06,1.46,1,-1.48,6.76,-7.71,4
12941,-9.54,1.43,1.1,-4.52,2.62,-13.99,4
12966,-10.22,1.43,1.37,-6.9,0.54,-18.38,4
12990,-10.91,1.15,1.43,-6.72,-1.22,-17.89,4
13015,-11.47,1.08,1.52,-6.54,-0.55,-14.66,4
13040,-11.6,1.12,1.72,-5.99,-2.08,-9.05,4
13065,-11.48,1.12,1.94,-3.85,-2.08,-2.16,4
13090,-11.06,1.18,2,-1.05,1.09,2.9,4
13114,-10.47,1.32,2.16,1.94,0.79,4.36,4
13139,-10.22,1.34,2.23,5.23,0.12,2.66,4
13163,-10.25,1.27,2.14,9.07,-1.83,0.83,4
13188,-10.61,1.06,1.95,12.55,-1.83,-0.76,4
13213,-11,0.78,1.76,14.99,-0.61,0.77,4
13238,-11.03,0.56,1.25,15.66,-2.2,5.46,4
13263,-10.85,0.6,1.05,15.96,-2.57,9.06,4
13287,-10.47,0.69,0.77,15.11,-1.59,9.97,4
13312,-10.1,0.83,0.6,12.91,-0.55,9.85,4
13336,-9.85,0.97,0.46,10.35,2.13,9,4
13362,-9.65,1.11,0.46,6.94,6.95,5.58,4
13386,-9.46,1.16,0.59,3.59,4.26,1.86,4
13411,-9.43,1.16,0.69,0.96,1.58,-1.61,4
13436,-9.61,1.11,0.73,-0.01,2.86,-5.76,4
13460,-9.87,1.13,0.86,-1.66,6.4,-9.42,4
13485,-10.23,1.13,0.89,-3.43,4.63,-11.55,4
13509,-10.67,1.11,1.02,-4.28,0.73,-11.18,4
13534,-10.99,1.07,1.07,-4.1,-0.55,-9.36,4
13560,-11.18,1.08,1.17,-3.06,3.35,-5.82,4
13584,-11.03,1.15,1.33,-2.09,3.47,-2.83,4
13609,-11.12,1.12,1.01,-1.9,4.87,-1.18,4
13633,-11.11,1.01,0.96,-2.82,4.26,0.03,4
13658,-11.06,1.1,0.96,-4.16,3.04,2.11,4
13682,-10.81,1.18,1.08,-4.89,2.31,5.64,4
13707,-10.55,1.24,1.15,-5.2,3.35,7.78,4
13732,-10.19,1.25,1.36,-5.26,4.69,8.02,4
13757,-9.92,1.28,1.46,-5.44,0.61,6.68,4
13782,-9.87,1.22,1.49,-4.04,-2.69,5.64,4
13806,-9.87,1.08,1.5,-2.57,-4.09,3.69,4
13831,-9.88,1.11,1.52,-1.66,-1.89,1.68,4
13855,-9.96,0.96,1.46,-0.5,-2.14,-0.03,4
13880,-10.07,0.91,1.5,0.78,-2.02,-1.06,4
13905,-10.11,0.96,1.5,1.63,-2.81,-2.83,4
13929,-10.23,0.99,1.41,2.91,-3.42,-4.54,4
13954,-10.5,0.89,1.36,4.62,-3.91,-4.66,4
13979,-10.66,0.86,1.23,6.15,-1.96,-2.53,4
14004,-10.71,0.89,1.17,7,0.42,-0.33,4
14029,-10.58,0.83,0.89,6.94,0.85,1.68,4
14053,-10.46,0.86,0.84,5.05,-1.47,2.23,4
14078,-10.31,0.9,0.73,2.43,-3.78,2.53,4
14102,-10.25,0.96,0.77,1.39,-2.57,1.99,4
14127,-10.27,0.92,0.71,-0.01,1.34,1.32,4
14151,-10.23,0.92,0.72,-2.51,-0.37,0.71,4
14177,-10,1.11,0.81,-5.68,-2.63,-0.94,4
14202,-10.15,1.25,1,-7.09,-4.82,-3.26,4
14226,-10.5,1.27,1.27,-6.54,-3.85,-4.36,4
14251,-10.71,1.15,1.24,-5.07,0.12,-3.38,4
14275,-10.77,1.13,1.29,-4.28,0.54,-1.86,4
14300,-10.84,1.15,1.18,-4.16,-0.61,0.34,4
14324,-10.71,1.09,1.18,-5.2,0.91,1.93,4
14350,-10.36,1.11,1.3,-5.32,-1.04,2.78,4
14375,-10.17,1.31,1.34,-4.71,0.91,1.86,4
14399,-10.2,1.23,1.51,-4.34,2.5,-0.45,4
14424,-10.28,1.19,1.54,-3.06,2.01,-2.65,4
14448,-10.46,1.21,1.64,-0.99,1.03,-3.07,4
14473,-10.69,1.09,1.76,1.88,1.4,-1.98,4
14498,-10.84,1.12,1.69,4.99,2.8,0.34,4
14522,-10.74,1.06,1.62,7.49,5.06,2.53,4
14548,-10.72,0.99,1.38,8.65,3.72,4.67,4
14572,-10.58,0.97,1.05,8.52,2.37,5.95,4
14597,-10.25,0.94,1.01,7.18,1.22,6.93,4
14621,-10.02,1.1,0.9,4.8,1.09,6.62,4
14646,-9.85,1,0.97,2.73,-0.49,4.61,4
14671,-9.83,1.01,0.79,0.84,-1.65,2.23,4
14695,-9.72,1.03,0.82,-2.02,-2.44,0.71,4
14720,-9.83,1,0.9,-4.83,-5.92,-1.61,4
14744,-10.07,0.89,1.07,-6.05,-5.31,-2.89,4
14770,-10.26,0.92,1.22,-5.93,-4.82,-3.14,4
14794,-10.24,0.95,1.26,-5.56,-2.87,-3.01,4
14819,-10.24,1.03,1.29,-5.26,-3.3,-3.2,4
14844,-10.3,1.01,1.24,-4.83,-2.63,-3.93,4
14868,-10.41,0.99,1.34,-3.43,0.18,-3.87,4
14893,-10.34,0.99,1.31,-2.63,2.86,-2.71,4
14917,-10.27,0.95,1.33,-1.96,5.18,-3.5,4
14943,-10.28,0.91,1.25,-2.88,5.67,-5.82,4
14968,-10.39,0.85,1.17,-5.38,4.08,-7.22,4
14992,-10.43,0.82,1.33,-7.45,-0.31,-6.98,4
15017,-10.52,1.01,1.59,-8.31,-3.6,-7.53,4
15041,-10.65,1.13,1.9,-6.78,-2.99,-8.2,4
15066,-10.75,1.22,1.94,-3.18,-2.81,-7.65,4
15090,-11,1.24,2.06,1.63,-1.47,-5.57,4
15116,-11.02,1.24,2.04,6.57,1.34,-3.2,4
15141,-11.01,1.2,1.82,10.48,5.36,-0.94,4
15165,-11.1,1.14,1.61,12.91,7.5,1.19,4
15190,-11.1,1.02,1.41,13.22,4.08,4.12,4
15214,-10.91,1.09,1,12.55,0.67,7.47,4
15239,-10.78,1.02,0.89,11.39,0.79,10.4,4
15264,-10.53,0.9,0.9,9.07,0.97,12.84,4
15289,-10.17,0.84,0.71,5.78,0.73,13.39,4
15314,-9.81,0.81,0.79,2.61,-0.68,11.56,4
15338,-9.71,0.85,0.91,-0.44,-4.94,7.53,4
15363,-9.85,0.72,0.98,-2.82,-8.11,3.33,4
15387,-10.09,0.73,1.07,-4.16,-8.17,1.19,4
15412,-10.23,0.8,1.19,-3.79,-8.24,0.95,4
15437,-10.22,0.82,1.28,-1.84,-5.74,2.05,4
15462,-10.13,0.92,1.34,1.69,-3.72,2.72,4
15487,-9.92,0.94,1.2,4.44,1.82,2.47,4
15511,-9.62,0.91,1.16,5.9,7.62,0.16,4
15536,-9.66,0.92,1.1,6.02,9.63,-4.9,4
15560,-9.92,1.01,0.94,4.8,9.81,-10.57,4
15585,-10.64,1.19,0.89,2.79,5.91,-14.05,4
15610,-11.34,1.13,0.88,1.82,2.98,-10.57,4
15634,-11.69,1.17,0.62,3.16,3.84,-4.54,4
15660,-11.48,1.1,0.58,3.4,12.07,1.13,4
15684,-11.15,1.02,0.45,-0.5,12.25,6.25,4
15709,-10.59,1.19,0.53,-5.87,8.17,9.61,4
15733,-9.89,1.32,0.78,-10.13,4.57,9.55,4
15758,-9.68,1.49,1.09,-12.09,0.36,6.07,4
15783,-9.73,1.31,1.33,-12.88,-0.86,1.62,4
15807,-10.01,1.18,1.5,-12.02,-0.13,-1.49,4
15833,-10.14,1.23,1.75,-10.81,-2.26,-3.2,4
15857,-10.3,1.16,1.82,-9.04,-3.85,-4.42,4
15882,-10.55,1.3,2.18,-6.23,-4.21,-4.97,4
15907,-10.92,1.28,2.18,-2.51,-6.59,-3.75,4
15931,-11.15,1.23,2.15,2.55,-3.24,-0.15,4
15956,-11.34,1.01,1.89,8.28,-0.31,5.22,4
15981,-11.11,0.85,1.56,12.18,3.04,10.4,4
16006,-10.56,0.77,1.17,12.55,3.11,12.6,4
16030,-10.19,0.84,0.76,10.11,1.22,10.83,4
16055,-10.04,0.99,0.74,7.24,0.42,8.69,4
16080,-10,1.18,0.72,5.9,-1.59,6.44,4
16105,-9.86,1.31,0.72,6.39,-1.04,4.24,4
16130,-9.99,1.3,0.73,7.91,1.22,2.96,4
16154,-10.17,1.28,0.56,8.89,4.08,1.38,4
16179,-10.33,1.19,0.32,7.73,5.18,1.01,4
16203,-10.49,1.13,0.14,4.68,6.15,1.8,4
16228,-10.45,1.07,0.11,0.29,2.92,3.27,4
16253,-10.35,1.13,0.24,-4.83,1.15,4.55,4
16277,-10.02,1.15,0.55,-8.98,-1.41,5.1,4
16302,-9.74,1.24,0.73,-11.84,-4.64,4.18,4
16327,-9.68,1.25,0.94,-13.49,-5,0.95,4
16352,-9.66,1.3,1.24,-13.91,-5.19,-2.16,4
16377,-9.78,1.22,1.45,-13,-5.31,-3.32,4
16401,-9.87,1.15,1.55,-11.54,-6.04,-4.84,4
16426,-9.95,1.2,1.66,-9.59,-7.08,-6.86,4
16450,-10.06,1.14,1.83,-6.66,-5.98,-8.07,4
16475,-10.17,1.15,1.77,-3.12,-4.76,-8.75,4
16500,-10.44,1.02,1.64,1.39,-1.16,-9.78,4
16525,-10.69,1.03,1.67,3.89,3.84,-12.34,4
16550,-10.97,0.93,1.43,4.56,1.64,-11,4
16574,-11.21,0.87,1.27,5.35,-0.13,-4.84,4
16599,-10.99,0.99,1.1,6.45,4.32,-0.76,4
16623,-10.59,1.13,1.16,6.45,7.13,-1.67,4
16648,-10.48,1.21,0.99,5.05,5.97,-4.42,4
16674,-10.67,1.31,0.99,3.4,2.92,-5.21,4
16698,-10.82,1.28,1.05,2.18,0.3,-3.32,4
16723,-10.77,1.31,1.16,2.18,1.89,-1.43,4
16747,-10.77,1.37,1.24,3.28,2.13,-1.12,4
16772,-10.89,1.42,1.29,4.99,0.73,-0.88,4
16796,-11.13,1.24,1.14,6.69,1.22,1.01,4
16821,-11.12,1.1,0.95,7,5.06,5.89,4
16847,-10.74,1.07,0.95,5.66,4.32,9.61,4
16871,-10.23,1.02,0.9,3.16,1.95,9.18,4
16896,-9.88,1.12,1.01,1.51,0.42,5.22,4
16920,-10.16,1.29,1.03,1.15,-0.07,0.71,4
16945,-10.5,1.36,1.09,1.45,1.03,-0.57,4
16969,-10.95,1.25,0.85,0.9,0.48,1.19,4
16994,-11.21,1.16,0.91,0.11,-3.91,5.95,4
17019,-11.12,1.04,0.77,0.17,-4.09,11.62,4
17043,-10.65,1.09,0.79,0.29,0.42,15.1,4
17069,-10.06,1.06,0.71,0.05,0.3,14.85,4
17093,-9.62,1.17,0.71,-0.68,2.86,13.02,4
17118,-9.45,1.16,0.71,-2.09,2.25,9.73,4
17143,-9.32,1.05,0.74,-2.7,2.92,5.77,4
17167,-9.25,1.18,0.79,-2.15,6.03,1.19,4
17192,-9.59,1.34,0.9,-1.84,9.14,-5.64,4
17216,-10.16,1.4,0.85,-1.96,10.42,-10.76,4
17241,-10.77,1.45,0.89,-3.67,5.06,-7.89,4
17266,-10.98,1.34,0.78,-4.77,0,-0.45,4
17291,-10.72,1.34,0.71,-4.52,0.54,5.28,4
17316,-10.23,1.28,0.74,-5.32,3.96,4.55,4
17340,-9.94,1.21,0.68,-8.06,3.17,1.07,4
17365,-10,1.29,0.61,-11.6,-2.63,-0.45,4
17389,-9.81,1.31,0.84,-13.49,-2.57,-0.57,4
17414,-9.6,1.28,1.35,-14.34,-2.44,-3.5,4
17439,-9.83,1.34,1.62,-13.24,-5.07,-8.81,4
17464,-10.21,1.29,1.83,-9.59,-5.74,-11.18,4
17489,-10.5,1.32,1.9,-4.04,-5,-10.03,4
17513,-10.67,1.28,1.8,1.27,0.73,-7.16,4
17538,-10.66,1.11,1.79,5.84,2.98,-4.78,4
17562,-10.46,1.18,1.62,9.01,1.76,-4.23,4
17588,-10.26,1.22,1.35,11.09,-1.22,-4.17,4
17613,-10.49,1.28,1.03,12.43,-1.35,-3.87,4
17637,-10.46,1.18,0.82,11.88,1.58,-2.71,4
17662,-10.45,1.22,0.7,10.66,0.42,-2.34,4
17686,-10.41,1.24,0.6,9.87,-0.31,-2.95,4
17711,-10.45,1.31,0.48,8.95,-1.35,-3.81,4
17736,-10.64,1.29,0.43,6.94,-0.49,-4.42,4
17761,-10.87,1.26,0.46,4.8,-1.77,-3.99,4
17786,-11.06,1.24,0.42,3.16,-0.86,-1.79,4
17810,-11.19,1.15,0.41,1.63,-1.53,1.07,4
17835,-11.02,1.13,0.43,-0.5,-0.55,4.06,4
17859,-10.75,1.21,0.57,-3.06,-2.75,5.34,4
17884,-10.71,1.24,0.44,-5.44,-3.85,5.46,4
17908,-10.73,1.18,0.54,-7.45,-4.09,6.68,4
17934,-10.49,1.12,0.7,-9.28,-4.82,8.21,4
17959,-10.32,1.13,0.79,-10.2,-4.46,8.75,4
17983,-10.2,1.09,1.12,-10.13,-3.6,8.02,4
18008,-9.97,1.04,1.27,-9.71,-1.83,6.44,4
18032,-9.83,1.14,1.34,-8.49,-0.98,4.55,4
18057,-9.9,1.15,1.55,-6.54,1.64,1.5,4
18082,-9.92,1.17,1.73,-3.67,-0.61,-1.55,4
18107,-9.97,1.22,1.86,0.48,-0.8,-3.87,4
18132,-10.23,1.16,1.77,4.74,0.42,-4.42,4
18156,-10.41,1.24,1.65,8.34,4.2,-4.48,4
18181,-10.56,1.33,1.5,11.02,6.64,-4.11,4
18205,-10.58,1.32,1.15,11.76,6.34,-2.47,4
18230,-10.52,1.29,1.04,11.33,3.35,-0.51,4
18255,-10.5,1.29,0.82,9.74,2.31,0.64,4
18280,-10.25,1.24,0.82,7.43,1.15,0.89,4
18305,-10.23,1.24,0.59,4.32,-1.53,0.89,4
18329,-10.18,1.16,0.71,-0.2,-3.66,1.07,4
18354,-10.03,1.05,0.81,-4.04,-10.8,-0.15,4
18378,-10.04,1.03,1.1,-5.32,-13.05,-3.38,4
18403,-10.5,0.95,1.24,-4.04,-9.39,-5.82,4
18428,-10.87,0.91,1.24,-2.27,-7.08,-3.5,4
18453,-10.78,0.91,1.13,-0.26,-9.39,2.84,4
18478,-10.38,1,1.04,2.73,-3.05,4.43,4
18502,-10.26,1.09,0.85,4.26,3.41,1.07,4
18527,-10.33,1.05,0.65,3.34,8.23,-1.18,4
18552,-10.34,1.12,0.32,0.41,4.39,-1.73,4
18576,-10.42,1.07,0.2,-3.73,5.97,-1.73,4
18601,-10.24,1.06,0.44,-9.34,4.63,-1.06,4
18625,-9.98,1.2,0.94,-13.98,0.67,-2.16,4
18651,-9.83,1.46,1.53,-15.13,-1.59,-5.57,4
18675,-10.04,1.53,2.06,-12.27,-2.08,-8.44,4
18700,-10.47,1.55,2.35,-6.54,-4.76,-8.62,4
18725,-10.67,1.36,2.31,0.54,-5,-6.55,4
18749,-10.84,1.23,2.33,7.24,-3.18,-2.4,4
18774,-10.76,0.96,2.01,12.91,-0.86,2.23,4
18799,-10.4,0.87,1.72,16.02,1.28,4.55,4
18824,-10.05,0.88,1.34,16.69,1.22,4.36,4
18848,-9.87,0.95,1.08,16.57,-0.86,3.14,4
18873,-9.78,0.91,0.67,14.44,0.61,1.44,4
18898,-9.69,0.96,0.51,10.54,0.36,0.52,4
18922,-9.65,0.99,0.27,4.07,-1.65,-1.31,4
18947,-9.82,1.01,0.22,-2.7,-4.27,-4.6,4
18971,-10.23,0.92,0.21,-8.31,-5.74,-6.67,4
18997,-10.52,0.77,0.4,-13.55,-6.28,-5.88,4
19022,-10.62,0.67,0.33,-20.32,-7.14,-3.87,4
19046,-10.41,0.61,0.64,-27.51,-12.93,-2.47,4
19071,-10.02,0.75,1.25,-32.33,-17.75,-3.87,4
19095,-10.04,0.76,1.69,-32.21,-16.41,-7.89,4
19121,-10.42,0.87,2.15,-27.94,-12.44,-11.79,4
19145,-10.71,0.8,2.48,-21.78,-8.78,-13.68,4
19170,-11.15,0.79,2.29,-15.44,-4.09,-12.95,4
19195,-11.43,0.85,2.45,-9.22,-1.53,-8.99,4
19220,-11.44,0.91,2.42,-2.57,5.06,-3.07,4
19245,-11.03,0.98,2.35,3.1,8.23,1.13,4
19269,-10.6,1.04,2.05,7.49,10.24,1.93,4
19294,-10.53,1.05,1.65,9.56,9.75,1.56,4
19319,-10.42,0.95,1.2,8.1,11.4,1.44,4
19343,-10.22,0.9,1.07,3.89,6.52,1.8,4
19368,-10.15,0.9,1.09,-1.66,6.52,1.19,4
19393,-10.22,0.84,1.38,-6.84,1.82,-0.57,4
19418,-10.34,0.74,1.78,-9.16,-2.57,-1.73,4
19442,-10.59,0.69,2.17,-8.67,-5.19,-1.67,4
19467,-10.87,0.65,2.26,-5.26,-6.04,0.77,4
19492,-10.93,0.49,2.38,-0.62,-4.58,4.36,4
19516,-10.63,0.5,2.12,3.4,-3.48,7.41,4
19541,-10.35,0.43,1.87,5.05,-3.3,8.69,4
19565,-9.98,0.34,1.64,4.5,-3.91,9,4
19591,-9.66,0.37,1.45,2.91,-4.27,6.93,4
19615,-9.53,0.5,1.39,1.57,-4.21,3.51,4
19640,-9.49,0.47,1.32,0.78,-3.91,-0.27,4
19665,-9.59,0.51,1.43,-0.26,-3.3,-4.11,4
19689,-9.65,0.6,1.52,-0.56,-2.69,-8.14,4
19714,-9.92,0.63,1.66,0.05,-1.71,-11.86,4
19738,-10.34,0.58,1.76,2.98,-1.22,-12.71,4
19763,-10.65,0.59,1.74,7.06,3.9,-13.01,4
19787,-10.88,0.59,1.68,10.05,10.67,-12.71,4
19813,-11.21,0.6,1.43,11.51,11.46,-10.88,4
19838,-11.36,0.7,1.11,11.21,9.69,-7.47,4
19862,-11.52,0.75,0.94,9.62,13.96,-2.34,4
19887,-11.17,0.68,1.07,7.85,21.7,4.18,4
19912,-10.66,0.85,1.14,5.35,15.06,7.84,4
19937,-10.06,0.96,1.07,2.12,9.45,7.11,4
19962,-9.75,0.88,1.15,-1.84,0,3.21,4
19986,-9.88,0.92,1.38,-5.07,-4.94,-1.67,4
20011,-10.27,0.85,1.74,-5.38,-5.74,-4.6,4
20035,-10.62,0.72,1.86,-2.76,-6.04,-4.97,4
20060,-10.79,0.53,1.93,0.9,-5.43,-3.87,4
20084,-10.99,0.46,1.84,3.34,-3.18,-1.18,4
20110,-10.99,0.37,1.83,5.29,0.54,2.6,4
20135,-10.63,0.48,1.97,7.06,3.17,5.89,4
20159,-10.19,0.63,1.94,8.95,3.72,6.25,4
20184,-10.18,0.67,1.96,11.33,2.01,3.82,4
20208,-10.28,0.78,1.69,14.5,3.59,1.07,4
20233,-10.49,0.68,1.39,16.69,3.11,1.62,4
20258,-10.75,0.54,1,16.21,5.12,3.45,4
20283,-10.65,0.49,0.78,13.77,3.04,5.34,4
20308,-10.59,0.55,0.81,10.78,2.19,5.52,4
20332,-10.43,0.62,0.73,9.26,-0.49,5.77,4
20357,-10.31,0.74,0.63,8.77,-3.54,5.77,4
20381,-10.29,0.68,0.53,7.91,1.89,5.22,4
20406,-10.18,0.74,0.73,6.39,5.91,4.24,4
20431,-10.06,0.75,0.76,5.41,2.5,3.82,4
20456,-10.03,0.74,0.71,5.35,0.06,2.53,4
20481,-10.11,0.73,0.72,4.62,1.58,0.64,4
20505,-10.2,0.71,0.94,3.34,5.3,-1.25,4
20530,-10.36,0.84,0.95,2.85,2.19,-2.16,4
20554,-10.45,0.87,0.85,2.61,-0.43,-2.4,4
20579,-10.44,0.95,0.81,2.43,-0.25,-1.73,4
20604,-10.56,0.88,0.76,1.27,1.58,-0.45,4
20628,-10.45,0.9,0.8,-1.29,3.11,0.22,4
20654,-10.21,0.86,0.69,-4.1,-1.83,-0.09,4
20678,-10.22,0.89,0.97,-6.48,-3.72,-0.39,4
20703,-10.27,0.92,1.05,-8.24,-5.61,-0.51,4
20728,-10.13,0.8,1.19,-9.65,-6.41,-0.7,4
20752,-10.08,0.62,1.44,-10.32,-7.26,-1.86,4
20777,-9.99,0.49,1.55,-10.32,-9.15,-3.56,4
20801,-10.04,0.61,1.82,-9.59,-8.91,-6.37,4
20827,-10.15,0.65,2.09,-5.93,-8.36,-9.9,4
20851,-10.59,0.73,2.16,0.41,-2.99,-13.5,4
20876,-11.36,0.81,1.97,5.96,2.31,-15.15,4
20901,-12.11,0.7,1.41,9.99,5.12,-10.21,4
20925,-12.19,0.66,1.06,12.37,10.79,0.58,4
20950,-11.74,0.62,0.68,12.24,15.79,9.12,4
20975,-11.15,0.71,0.39,8.46,12.25,12.23,4
21000,-10.61,0.98,0.36,2.49,11.58,12.6,4
21024,-10.22,1.12,0.5,-2.09,0.3,12.53,4
21049,-10.15,1.07,0.63,-4.95,-0.43,12.35,4
21075,-9.93,0.93,0.83,-7.27,1.58,12.23,4
21099,-9.8,0.85,0.95,-9.59,-0.74,10.77,4
21124,-9.81,0.74,1.17,-11.11,-1.1,7.23,4
21148,-9.87,0.89,1.33,-11.9,-3.85,3.45,4
21173,-9.97,0.97,1.61,-11.11,-3.91,1.07,4
21198,-10.11,1.08,1.86,-8.18,-4.88,-0.27,4
21222,-10.27,1.07,2,-3.37,-3.54,-0.64,4
21247,-10.53,0.97,1.94,1.63,-1.1,-0.51,4
21272,-10.47,0.95,1.75,5.96,3.9,0.89,4
21297,-10.52,0.85,1.55,8.4,3.65,2.6,4
21321,-10.47,0.84,1.35,9.44,2.86,4.12,4
21346,-10.37,0.87,1.03,9.38,1.4,5.83,4
21371,-10.15,0.73,0.79,8.71,2.5,7.17,4
21395,-9.94,0.71,0.75,6.45,3.11,5.95,4
21420,-9.77,0.72,0.61,2.98,1.64,3.75,4
21444,-9.6,0.65,0.51,-1.41,-0.8,0.34,4
21469,-9.71,0.61,0.73,-6.23,-3.42,-3.07,4
21495,-9.86,0.7,1.12,-9.1,-3.97,-5.57,4
21519,-9.97,0.84,1.43,-8.67,-3.72,-8.44,4
21544,-10.1,1,1.72,-6.41,-1.53,-10.94,4
21568,-10.55,0.93,1.77,-2.33,-3.6,-12.59,4
21593,-11.01,0.89,1.69,1.69,-0.19,-13.14,4
21617,-11.57,0.89,1.63,5.6,3.53,-10.88,4
21642,-11.84,0.84,1.33,8.65,4.2,-5.94,4
21668,-11.88,0.88,0.94,10.84,4.87,0.64,4
21692,-11.59,1.02,0.66,12.06,6.82,7.35,4
21717,-10.93,1.06,0.44,10.48,9.26,13.14,4
21741,-10.1,1.13,0.36,6.57,10.48,16.56,4
21766,-9.24,1.29,0.5,2.12,7.25,15.77,4
21791,-8.87,1.43,0.53,-0.87,4.2,9.67,4
21816,-8.89,1.27,0.69,-3.12,1.34,0.83,4
21841,-9.58,1.05,0.7,-5.01,-0.37,-6.67,4
21865,-10.28,0.83,0.68,-7.09,-0.19,-9.66,4
21890,-10.7,0.71,0.77,-8.49,-3.11,-8.68,4
21914,-10.98,0.61,1.02,-8.55,-2.63,-5.45,4
21939,-10.91,0.75,1.2,-7.45,-1.53,-1.43,4
21963,-10.52,0.79,1.42,-4.71,-0.07,1.07,4
21988,-10.23,0.89,1.4,-2.51,1.82,1.44,4
22014,-10.14,0.82,1.37,-0.81,0.85,0.4,4
22038,-10.08,0.81,1.29,0.78,-0.25,-1.67,4
22063,-9.94,0.78,1.25,1.82,-0.98,-3.2,4
22087,-10.04,0.68,1.19,1.76,-2.63,-5.64,4
22112,-10.23,0.63,1.21,1.15,-5.74,-7.77,4
22137,-10.35,0.64,1.07,1.27,-8.05,-8.68,4
22161,-10.69,0.67,1.1,1.82,-3.6,-8.75,4
22186,-10.9,0.62,1.1,2.79,-0.55,-6.18,4
22211,-10.92,0.74,1.05,3.83,0.42,-3.32,4
22236,-10.79,0.89,1.01,5.6,1.34,-2.04,4
22260,-10.82,0.85,0.77,6.27,1.22,-0.76,4
22285,-10.88,0.7,0.41,4.74,3.53,1.32,4
22310,-10.77,0.69,0.16,0.84,4.51,4.18,4
22334,-10.52,0.7,0.15,-4.1,4.75,5.83,4
22359,-10.18,0.6,0.23,-10.44,1.76,4.43,4
22383,-9.83,0.7,0.53,-15.62,-4.7,0.4,4
22409,-9.9,0.88,1.04,-18.61,-6.89,-4.23,4
22434,-10.16,0.88,1.48,-18.43,-7.14,-8.01,4
22458,-10.5,0.91,1.87,-14.65,-8.48,-8.87,4
22483,-10.75,1.01,2,-7.21,-5.92,-8.07,4
22507,-11.02,1.01,2.11,0.9,1.82,-5.76,4
22532,-11.11,0.87,1.95,8.04,7.31,-2.16,4
22557,-11.03,0.77,1.53,12.67,9.39,2.11,4
22582,-10.65,0.71,1.3,13.58,7.74,5.71,4
22607,-10.27,0.68,0.95,12.3,5.61,6.99,4
22631,-10.04,0.64,0.82,9.62,5.67,5.52,4
22656,-9.89,0.56,0.8,6.02,2.43,3.21,4
22680,-9.93,0.58,0.76,2.3,-2.44,1.13,4
22705,-10.06,0.58,0.7,-0.32,-5.07,-0.51,4
22729,-10.24,0.52,0.87,-2.57,-4.33,-2.28,4
22755,-10.37,0.44,0.83,-4.46,-5.13,-2.16,4
22780,-10.42,0.43,0.87,-5.68,-4.52,-0.21,4
22804,-10.12,0.46,1.14,-6.41,-5.68,0.58,4
22829,-9.94,0.56,1.31,-6.6,-4.46,-3.01,4
22853,-10,0.63,1.58,-4.83,-4.39,-7.04,4
22878,-10.3,0.61,1.66,-1.23,-3.11,-8.62,4
22903,-10.55,0.56,1.62,2.3,-0.43,-8.56,4
22928,-10.75,0.57,1.71,5.11,3.84,-8.5,4
22953,-10.9,0.58,1.48,8.22,4.26,-7.83,4
22977,-11.15,0.59,1.41,10.78,4.57,-5.51,4
23002,-11.22,0.6,1.13,12.43,5.06,-2.4,4
23026,-11.08,0.62,0.8,11.51,7.13,0.64,4
23051,-10.88,0.61,0.71,8.59,3.59,2.66,4
23076,-10.68,0.77,0.66,5.9,1.28,3.27,4
23101,-10.52,0.78,0.77,3.83,0.61,2.78,4
23126,-10.54,0.84,0.71,2.43,1.34,2.05,4
23150,-10.71,0.77,0.78,1.39,1.58,2.72,4
23175,-10.72,0.67,0.92,0.35,1.76,4.49,4
23199,-10.58,0.64,1.03,-0.5,-0.13,6.44,4
23224,-10.42,0.6,1.1,-0.44,-0.49,7.17,4
23249,-10.29,0.6,1.22,0.11,-0.86,7.35,4
23273,-10.18,0.59,1.32,1.39,-0.74,6.56,4
23299,-10.05,0.54,1.17,1.94,-0.25,6.01,4
23323,-10.07,0.68,1.03,1.88,-1.28,4.18,4
23348,-10.21,0.73,1.11,0.9,-1.59,2.23,4
23373,-10.33,0.73,1.23,0.66,-1.83,0.89,4
23397,-10.52,0.74,1.33,2.73,-2.02,2.35,4
23422,-10.52,0.65,1.29,6.15,1.52,4.73,4
23446,-10.07,0.55,1.21,8.1,3.9,4.61,4
23471,-9.88,0.64,1.16,7.73,2.68,-0.21,4
23496,-10.26,0.6,0.97,7.73,-0.8,-4.84,4
23521,-10.71,0.55,0.83,8.28,-0.8,-5.57,4
23546,-11.12,0.55,0.55,8.95,1.52,-3.81,4
23570,-11.19,0.46,0.39,7.67,7.68,-0.82,4
23595,-11.16,0.57,0.25,4.13,3.04,4.18,4
23619,-10.64,0.73,0.31,0.48,0.48,9.36,4
23644,-9.92,0.88,0.44,-2.82,-1.35,10.83,4
23668,-9.53,0.85,0.72,-5.5,-0.25,7.29,4
23693,-9.45,0.78,0.9,-7.88,-3.3,1.13,4
23719,-9.7,0.88,1.1,-8.98,-7.26,-4.54,4
23743,-10.19,0.75,1.04,-7.82,-3.78,-6.43,4
23768,-10.6,0.66,1.4,-5.68,-2.75,-5.64,4
23792,-10.73,0.79,1.51,-3.37,-0.31,-3.99,4
23817,-10.67,0.8,1.5,0.17,-1.28,-1.67,4
23842,-10.64,0.91,1.45,3.95,0.79,-0.39,4
23866,-10.54,0.97,1.28,6.82,3.35,-0.39,4
23891,-10.64,0.99,1.14,7.61,2.92,-1,4
23916,-10.85,0.9,0.63,6.27,0.48,1.44,4
23941,-10.82,0.72,0.33,3.77,-1.53,6.25,4
23965,-10.37,0.66,0.36,0.6,1.03,9.79,4
23990,-9.76,0.65,0.32,-2.76,0,9.97,4
24015,-9.23,0.66,0.44,-7.7,-2.14,4.79,4
24039,-9.27,0.76,0.82,-12.7,-5.8,-3.26,4
24064,-9.61,0.77,1.15,-14.77,-9.76,-9.36,4
24088,-10.07,0.72,1.49,-12.15,-10.98,-12.83,4
24114,-10.66,0.72,1.67,-7.7,-4.88,-14.05,4
24138,-11.1,0.62,1.69,-3,2.07,-13.5,4
24163,-11.43,0.66,1.67,1.63,4.87,-11.43,4
24188,-11.76,0.62,1.44,5.84,6.7,-6.31,4
24212,-11.7,0.64,1.33,8.34,6.22,1.62,4
24237,-11.19,0.77,1.01,9.01,7.37,8.27,4
24262,-10.52,0.81,0.65,7.79,6.34,10.34,4
24287,-10.17,0.71,0.5,3.95,7.43,8.69,4
24312,-9.81,0.7,0.44,-1.78,1.46,4.85,4
24336,-9.73,0.79,0.55,-7.82,-2.69,0.46,4
24361,-9.9,1.02,1.1,-10.44,-6.83,-3.14,4
24385,-10.27,1.14,1.55,-8.12,-6.1,-4.6,4
24410,-10.52,0.95,1.72,-3.67,-1.47,-4.23,4
24435,-10.84,0.86,1.93,1.21,1.15,-2.83,4
24460,-11.02,0.71,1.62,5.6,1.34,0.83,4
24485,-10.92,0.59,1.34,9.56,2.13,5.34,4
24509,-10.61,0.56,1.07,10.48,3.17,8.94,4
24534,-10.18,0.57,0.78,8.4,2.92,9.49,4
24558,-9.77,0.6,0.66,5.05,1.95,6.62,4
24583,-9.65,0.62,0.64,2.37,-1.65,2.23,4
24607,-9.78,0.69,0.6,0.23,-4.52,-1.31,4
24632,-9.96,0.75,0.72,-1.17,-2.81,-4.42,4
24658,-10.11,0.74,0.93,-2.15,-3.11,-6.67,4
24682,-10.3,0.66,1.04,-1.84,-3.05,-6.43,4
24707,-10.48,0.56,1.12,-0.38,-2.2,-5.03,4
24731,-10.45,0.5,1.19,1.39,0.61,-4.42,4
24756,-10.37,0.49,1.21,2.85,3.35,-4.66,4
24781,-10.4,0.61,1.22,3.89,4.87,-5.21,4
24805,-10.57,0.66,1.24,5.48,3.9,-5.88,4
24830,-10.83,0.61,0.97,7,6.28,-5.51,4
24855,-10.89,0.64,0.86,6.39,6.52,-3.75,4
24880,-10.89,0.68,0.61,3.52,3.53,-1.49,4
24904,-10.75,0.7,0.59,-0.26,-1.1,0.95,4
24929,-10.48,0.84,0.64,-3.24,-2.93,1.99,4
24954,-10.34,0.87,0.88,-4.77,-3.3,0.52,4
24978,-10.43,0.85,1.06,-5.07,-2.75,-1.06,4
25003,-10.59,0.78,1.24,-4.16,-1.59,-1.18,4
25027,-10.59,0.74,1.33,-2.57,-1.77,-0.51,4
25053,-10.67,0.73,1.29,-0.32,-1.1,0.28,4
25077,-10.7,0.66,1.38,1.33,-1.22,1.68,4
25102,-10.67,0.65,1.24,3.1,-2.44,2.84,4
25127,-10.57,0.57,1.15,4.62,-2.44,4.43,4
25151,-10.41,0.51,0.92,5.84,-1.22,5.46,4
25176,-10.21,0.44,0.72,5.84,0.54,5.1,4
25200,-9.88,0.38,0.57,3.65,1.09,3.51,4
25226,-9.82,0.24,0.59,0.11,-0.43,0.77,4
25251,-9.81,0.27,0.69,-3.43,-2.75,-2.34,4
25275,-9.87,0.37,1.11,-4.59,-3.97,-5.94,4
25300,-10.13,0.38,1.35,-3.91,-2.57,-9.17,4
25324,-10.55,0.61,1.55,-1.48,-1.41,-10.21,4
25349,-10.79,0.6,1.62,2.49,-5.55,-7.83,4
25373,-10.87,0.6,1.29,6.57,2.19,-4.42,4
25398,-10.8,0.65,1.28,8.52,7.74,-3.01,4
25424,-10.8,0.73,0.98,6.94,4.14,-3.14,4
25448,-10.82,1.03,0.87,5.17,0.61,-2.65,4
25473,-11.07,1.03,0.75,4.68,-1.22,-0.39,4
25497,-11.02,0.86,0.78,4.01,2.31,2.9,4
25522,-10.87,0.66,0.74,1.63,2.13,4.73,4
25546,-10.63,0.62,0.76,-1.54,-0.98,4.73,4
25571,-10.62,0.61,0.83,-4.22,-1.47,4.12,4
25596,-10.66,0.7,1.1,-5.2,-4.21,3.75,4
25621,-10.66,0.69,1.27,-4.77,-2.81,4,4
25646,-10.45,0.68,1.57,-2.57,-1.96,4.79,4
25670,-10.39,0.71,1.65,0.84,-1.77,4.3,4
25695,-10.31,0.64,1.65,5.29,1.09,4.3,4
25720,-10.27,0.64,1.59,8.89,1.82,4.55,4
25744,-10.2,0.71,1.36,10.66,2.62,5.16,4
25769,-10.17,0.66,1.1,10.96,1.82,5.28,4
25794,-10.04,0.61,0.87,9.68,1.03,4.61,4
25819,-10.06,0.55,0.79,6.69,-1.89,3.45,4
25843,-10.2,0.48,0.71,4.07,-4.82,2.35,4
25868,-10.31,0.46,0.66,1.63,-4.82,1.99,4
25893,-10.26,0.41,0.69,-1.29,-4.88,1.93,4
25917,-10.07,0.54,0.86,-4.83,-5.61,0.77,4
25942,-9.9,0.59,1.09,-6.96,-8.24,-1.43,4
25966,-9.87,0.87,1.45,-5.56,-8.24,-4.36,4
25991,-10.11,0.95,1.8,-1.29,-5.55,-7.34,4
26016,-10.71,0.89,1.86,4.74,-0.25,-9.42,4
26041,-11.34,0.75,1.63,10.6,4.02,-7.28,4
26066,-11.62,0.68,1.11,15.23,8.29,-1.18,4
26090,-11.43,0.69,0.73,16.82,12.13,6.32,4
26115,-10.87,0.72,0.52,14.26,11.22,11.44,4
26140,-10.21,0.81,0.29,9.5,11.4,11.56,4
26165,-9.76,0.98,0.42,4.87,9.14,7.78,4
26190,-9.76,0.93,0.27,0.29,2.86,2.41,4
26214,-10.09,0.84,0.34,-4.83,-0.43,-1.25,4
26239,-10.43,0.83,0.51,-8.98,-2.99,-1.55,4
26263,-10.54,0.68,0.79,-10.81,-2.63,0.16,4
26288,-10.56,0.62,1.13,-11.17,-2.75,1.93,4
26313,-10.3,0.62,1.48,-10.01,-4.15,2.6,4
26338,-10.07,0.66,1.55,-7.33,-3.05,2.11,4
26363,-9.99,0.64,1.59,-4.22,-0.55,0.64,4
26387,-10.01,0.6,1.54,-1.48,1.28,-0.94,4
26412,-9.99,0.61,1.61,-0.56,-1.41,-2.28,4
26436,-10.03,0.75,1.49,0.96,-2.26,-4.6,4
26461,-10.21,0.81,1.52,3.83,-4.64,-6.49,4
26485,-10.47,0.77,1.57,6.88,-0.37,-7.71,4
26511,-10.64,0.75,1.33,9.13,-0.19,-7.34,4
26536,-10.81,0.69,1.02,10.05,-0.68,-5.39,4
26560,-10.84,0.72,0.8,10.23,-1.04,-2.77,4
26585,-10.73,0.7,0.69,9.32,0,-0.57,4
26609,-10.54,0.85,0.64,8.46,0,0.34,4
26634,-10.54,0.83,0.46,6.39,3.96,0.52,4
26659,-10.49,0.95,0.4,2.55,2.01,0.1,4
26684,-10.69,0.89,0.43,-0.32,-0.43,-1.86,4
26709,-10.96,0.81,0.5,-1.84,-1.83,-0.33,4
26733,-11,0.74,0.62,-2.94,-0.13,3.63,4
26758,-10.71,0.73,0.72,-5.32,0.3,5.58,4
26782,-10.41,0.74,0.86,-7.45,-0.98,5.03,4
26807,-10.43,0.73,1.01,-8.31,-2.87,3.51,4
26832,-10.55,0.7,1.17,-7.82,-2.63,3.39,4
26856,-10.43,0.77,1.28,-6.54,-0.25,3.88,4
26882,-10.4,0.64,1.38,-4.65,3.04,4,4
26906,-10.32,0.71,1.52,-3.18,2.86,3.27,4
26931,-10.25,0.76,1.5,-0.5,3.17,2.72,4
26955,-10.17,0.87,1.59,2.73,4.39,1.44,4
26980,-10.28,0.88,1.55,5.96,5.3,0.4,4
27005,-10.45,0.92,1.45,8.46,4.39,-0.21,4
27029,-10.6,0.81,1.16,9.87,4.08,0.77,4
27054,-10.58,0.74,0.82,9.56,3.11,2.72,4
27079,-10.49,0.67,0.49,6.88,1.22,4.73,4
27104,-10.21,0.73,0.53,4.32,-0.8,5.4,4
27129,-9.97,0.77,0.49,1.27,-0.07,4,4
27153,-9.87,0.7,0.5,-1.41,-2.75,1.68,4
27178,-9.99,0.82,0.65,-3.91,-3.18,-0.82,4
27202,-10,0.89,0.76,-4.59,-5.13,-2.1,4
27227,-10.12,0.96,0.8,-4.83,-2.2,-2.22,4
27251,-10.32,0.8,0.87,-5.56,-0.49,-3.68,4
27276,-10.42,0.87,0.82,-6.9,-1.83,-5.27,4
27302,-10.74,0.74,0.96,-6.29,-3.05,-4.72,4
27326,-10.88,0.69,1.03,-5.13,-1.04,-2.22,4
27351,-10.72,0.66,0.9,-5.01,3.65,0.28,4
27375,-10.34,0.83,1,-6.35,3.17,0.28,4
27400,-10.12,1.01,1.25,-6.84,0.61,-1.86,4
27424,-10.19,1.08,1.55,-4.89,0.42,-3.87,4
27449,-10.4,1.11,1.61,-1.11,2.01,-5.33,4
27475,-10.69,0.99,1.49,1.94,4.75,-6,4
27499,-11.07,0.87,1.34,3.95,4.93,-4.48,4
27524,-11.29,0.89,1.07,4.74,3.35,-0.88,4
27548,-11.25,0.94,0.97,5.05,4.08,3.57,4
27573,-10.93,0.89,0.91,3.95,3.23,6.93,4
27598,-10.64,0.92,0.9,2.18,1.34,8.21,4
27622,-10.31,0.96,0.85,0.35,-1.59,8.08,4
27647,-10.16,0.89,0.85,-1.11,-2.93,7.47,4
27671,-10.1,0.73,0.83,-2.94,-2.75,6.19,4
27697,-10.13,0.73,0.83,-5.2,-4.58,4.73,4
27721,-10.06,0.61,1.01,-6.9,-6.04,3.39,4
27746,-10.17,0.62,1.1,-7.02,-8.6,2.6,4
27771,-10.19,0.75,1.35,-5.56,-7.14,2.23,4
27795,-10.11,0.71,1.32,-3.31,-5.07,2.17,4
27820,-9.96,0.7,1.36,-1.23,-3.18,1.5,4
27844,-9.92,0.8,1.28,0.29,-2.32,-0.76,4
27869,-10.11,0.88,1.19,1.57,-0.55,-3.99,4
27895,-10.37,0.83,1.04,2.12,0.85,-6.49,4
27919,-10.69,0.9,0.98,1.82,0.91,-6.73,4
27944,-11.13,0.8,0.81,2.12,1.46,-3.62,4
27968,-11.05,0.86,0.53,2.73,3.29,1.01,4
27993,-10.55,0.85,0.5,0.48,7.37,3.82,4
28017,-10.19,1.01,0.64,-3.31,3.35,2.84,4
28042,-10.15,1.01,0.79,-5.38,2.19,-0.88,4
28067,-10.37,1.04,0.94,-5.68,-0.25,-3.32,4
28092,-10.75,1.03,0.88,-5.87,1.46,-3.5,4
28117,-11.01,0.94,0.83,-6.66,1.03,-0.88,4
28141,-10.96,0.99,0.94,-6.66,0.42,3.08,4
28166,-10.57,0.95,1.17,-5.68,0.73,6.25,4
28190,-10.17,1.06,1.21,-5.07,3.17,6.56,4
28215,-10,1.01,1.32,-5.26,3.29,4.43,4
28240,-9.92,1.05,1.45,-5.07,0.97,1.25,4
28264,-10.04,0.92,1.47,-4.83,-0.37,-1.12,4
28290,-10.26,0.81,1.67,-4.52,-2.5,-1.86,4
28314,-10.5,0.76,1.55,-4.28,-7.38,-1.61,4
28339,-10.65,0.82,1.66,-2.82,-8.05,-0.51,4
28363,-10.8,0.81,1.57,-0.2,-7.63,1.99,4
28388,-10.75,0.66,1.45,2.3,-5.86,5.03,4
28413,-10.32,0.67,1.32,4.13,-5.13,6.74,4
28437,-9.89,0.9,0.99,5.11,-3.3,5.46,4
28462,-9.78,0.97,0.77,5.23,1.09,1.93,4
28486,-10.41,1.02,0.76,5.48,12.68,-1.49,4
28512,-11.19,1.01,0.99,8.22,30.91,0.71,4
28537,-11.48,0.93,1.08,12.49,36.89,9.55,4
28561,-10.99,1.08,0.8,14.68,30.61,15.64,4
28586,-9.96,1.29,0.61,14.8,20.67,14.24,4
28611,-9.36,1.41,0.32,10.96,6.64,6.86,4
28636,-9.51,1.33,0.16,5.78,-1.22,-1.06,4
28660,-9.87,1.33,0.08,1.51,-1.53,-5.76,4
28685,-10.26,1.32,0.04,-2.88,-3.54,-7.4,4
28710,-10.6,1.23,0.13,-7.02,-5,-7.71,4
28734,-10.93,1.21,0.23,-10.74,-10.25,-6.43,4
28759,-11.37,1.28,0.4,-12.02,-3.11,-2.47,4
28784,-11.31,1.4,0.98,-9.46,2.31,3.94,4
28809,-11.27,1.39,0.89,-5.2,6.22,9,4
28834,-10.85,1.35,0.81,-2.21,8.04,12.29,4
28858,-10.29,1.26,0.77,-2.27,3.41,12.6,4
28883,-9.91,1.26,0.73,-4.46,-1.1,9.85,4
28907,-9.92,1.23,0.66,-7.33,-3.85,5.77,4
28932,-10.01,1.21,0.85,-8.24,-7.81,3.14,4
28957,-10.06,1.1,0.86,-7.94,-11.16,1.56,4
28982,-10.28,0.98,0.94,-7.88,-7.81,0.89,4
29007,-10.33,0.99,1.03,-6.78,-8.3,1.38,4
29031,-10.16,1,1.07,-5.62,-8.05,2.53,4
29056,-9.95,1.12,1.2,-3.55,-4.52,2.23,4
29080,-10.04,1.13,1.31,-0.38,-3.3,1.07,4
29105,-10.05,1.16,1.29,3.46,0.12,-0.45,4
29129,-10.08,1.14,1,7,3.78,-2.47,4
29155,-10.23,1.06,0.89,8.77,4.69,-3.38,4
29180,-10.35,1.03,0.5,8.52,5,-3.14,4
29204,-10.25,1.09,0.41,5.9,4.93,-3.07,4
29229,-10.33,1.16,0.42,3.46,2.31,-3.44,4
29253,-10.39,1.24,0.36,2.37,0.18,-2.4,4
29278,-10.25,1.29,0.28,1.45,1.28,-2.04,4
29303,-10.14,1.23,0.38,-2.27,3.23,-2.71,4
29327,-10.11,1.35,0.39,-6.48,-0.43,-4.42,4
29353,-10.35,1.38,0.67,-8.06,-3.78,-6.18,4
29377,-10.53,1.46,0.85,-7.63,-6.53,-7.34,4
29402,-10.69,1.44,0.79,-7.63,-5.68,-8.14,4
29426,-10.91,1.41,0.85,-8.73,-8.05,-7.34,4
29451,-11.05,1.42,0.99,-9.16,-9.15,-4.72,4
29476,-10.9,1.54,1.2,-7.39,-9.03,-1.49,4
29500,-10.9,1.41,1.36,-3.85,-5.43,1.07,4
29526,-10.87,1.18,1.28,-0.56,-1.53,3.21,4
29550,-10.7,0.98,1.12,1.51,-1.16,4.55,4
29575,-10.61,0.87,1.05,1.02,0.67,5.89,4
29599,-10.45,0.78,1.07,0.05,-3.05,6.93,4
29624,-10.24,0.82,1.17,-0.74,-4.64,6.86,4
29649,-9.96,0.95,1.22,-0.38,-6.04,5.46,4
29673,-9.87,0.98,1.11,0.9,-5.25,3.88,4
29698,-9.94,0.96,1.01,2.18,-3.66,2.35,4
29723,-9.86,1,0.75,2.61,-1.1,1.19,4
29748,-9.77,1.05,0.56,1.63,-0.19,-0.57,4
29773,-9.81,1.12,0.62,-0.93,-0.43,-3.26,4
29797,-10.05,1.2,0.64,-3.67,-2.14,-5.7,4
29822,-10.46,1.16,0.67,-5.44,-3.66,-6.67,4
29846,-10.66,1,0.9,-6.11,-3.78,-4.72,4
29871,-10.82,1.04,0.8,-6.23,-0.07,-2.77,4
29895,-10.73,0.96,0.71,-7.33,0.3,-1.37,4
29920,-10.57,1.11,0.81,-9.65,-1.04,-1,4
29946,-10.42,1.06,1.05,-11.6,-0.92,-1.49,4
29970,-10.24,1.03,1.44,-12.21,-1.1,-1.49,4
29995,-10.07,1.19,1.71,-10.32,-0.37,-1.55,4
30019,-10.04,1.16,1.85,-6.54,2.74,-3.5,4
30044,-10.05,1.15,1.99,-3.55,3.11,-6.31,4
30068,-10.23,1.12,1.86,-0.87,0.85,-8.01,4
30094,-10.56,1.1,1.55,2.85,1.76,-8.2,4
30119,-10.89,1.07,1.55,4.32,2.92,-6.49,4
30143,-11.07,1.05,1.23,4.68,2.07,-3.93,4
30168,-11.01,1.13,1.02,4.32,0.06,-0.82,4
30192,-10.74,1.19,1.05,3.46,-0.55,1.44,4
30217,-10.62,1.13,1.05,2.61,-0.49,2.78,4
30242,-10.43,1.09,0.97,1.57,-2.2,3.33,4
30266,-10.15,1,1.06,1.45,-1.53,3.63,4
30292,-10.14,0.93,1.07,1.02,-1.65,2.84,4
30316,-10.1,0.83,0.98,-0.2,-0.49,2.05,4
30341,-10,0.8,1.09,-2.63,-2.38,0.52,4
30365,-10.05,0.87,1.01,-4.4,-4.33,-1.06,4
30390,-10.21,0.88,1.07,-5.01,-4.52,-2.59,4
30415,-10.3,0.88,1.21,-5.01,-2.93,-3.14,4
30439,-10.37,0.85,1.34,-4.28,-1.35,-3.32,4
30464,-10.37,0.86,1.41,-4.04,0,-3.75,4
30489,-10.58,0.93,1.59,-2.76,-0.86,-5.27,4
30514,-10.86,0.86,1.59,1.02,0.36,-4.48,4
30538,-10.88,0.85,1.37,5.48,5.12,-1.06,4
30563,-10.6,0.88,1.24,6.82,9.57,2.41,4
30588,-10.23,0.93,1.08,4.56,7.56,1.86,4
30612,-10.03,1.13,1.18,1.82,2.43,-2.71,4
30637,-10.41,1.19,1.34,0.41,-1.89,-6.12,4
30662,-10.91,1.2,1.34,1.57,-3.05,-5.03,4
30687,-11.16,1.03,1.35,2.73,2.01,-1.55,4
30712,-11.04,0.98,1.33,3.16,-0.8,1.74,4
30736,-11.12,0.99,1.35,3.77,-0.98,5.1,4
30761,-10.79,1.1,1.3,5.17,-2.02,7.9,4
30785,-10.33,1.08,1.39,5.9,-1.65,9.24,4
30810,-10.05,1.03,1.29,5.9,-0.31,7.9,4
30834,-10.05,0.99,1.15,5.54,-1.35,5.77,4
30859,-10.1,0.95,1.12,4.56,-3.42,3.57,4
30885,-10.25,0.88,1.05,3.46,-5.19,3.21,4
30909,-10.43,0.83,1.01,3.16,-4.52,4.55,4
30934,-10.32,0.72,0.85,2.98,-3.48,5.34,4
30958,-10.18,0.75,0.84,1.82,-3.54,4.49,4
30983,-10.15,0.76,0.62,1.02,-3.18,3.21,4
31007,-10.18,0.74,0.61,0.17,1.4,2.84,4
31032,-10,0.8,0.64,-1.72,0,2.9,4
31057,-9.76,1.01,0.74,-3.31,2.43,1.01,4
31082,-9.58,1.12,0.94,-3.61,3.9,-2.47,4
31107,-9.77,1.1,0.96,-3.67,3.11,-7.53,4
31131,-10.24,1,1.03,-2.27,4.87,-9.97,4
31156,-10.7,1.03,1,-0.68,7.56,-9.05,4
31181,-10.91,1.04,0.7,-1.41,11.4,-6.37,4
31205,-10.8,1.03,0.8,-5.38,5.54,-3.75,4
31230,-10.63,1.11,1,-8.43,1.52,-3.5,4
31254,-10.74,1.21,1.26,-8.31,-3.05,-4.54,4
31280,-10.91,1.22,1.41,-6.29,-1.59,-3.81,4
31304,-11.16,1.22,1.36,-4.4,3.41,-1.37,4
31329,-10.97,1.21,1.38,-3.73,1.95,2.41,4
31354,-10.87,1.06,1.33,-2.82,2.56,5.4,4
31378,-10.58,1.2,1.32,-1.78,3.17,6.8,4
31403,-10.28,1.15,1.18,-1.23,2.43,6.68,4
31427,-10.19,1,1.18,-1.96,2.86,5.77,4
31453,-10.1,0.95,1.14,-3.43,0.42,4.85,4
31477,-9.99,0.88,1.37,-4.52,-2.44,3.45,4
31502,-9.95,0.87,1.43,-4.28,-4.03,2.41,4
31527,-9.99,0.79,1.43,-3.91,-4.09,0.64,4
31551,-10.05,0.86,1.66,-2.76,-5.25,-0.21,4
31576,-10.09,0.81,1.57,-0.26,-5.19,-0.7,4
31600,-10.2,0.83,1.44,3.16,-2.38,-0.21,4
31625,-10.24,0.71,1.18,5.17,0.24,0.58,4
31651,-9.96,0.7,0.94,4.38,3.04,-0.45,4
31675,-9.83,0.76,0.67,0.72,0.73,-3.38,4
31700,-10.04,0.88,0.77,-2.51,-4.03,-7.16,4
31724,-10.33,0.96,0.9,-2.76,-2.99,-8.2,4
31749,-10.51,0.99,0.74,-1.6,2.62,-7.28,4
31773,-10.5,0.96,0.92,-2.45,5.67,-7.22,4
31798,-10.63,1.12,0.96,-4.59,4.45,-8.75,4
31823,-10.83,1.26,1.07,-4.59,3.11,-9.54,4
31848,-11.12,1.15,1.31,-2.09,3.04,-6.43,4
31873,-11.09,1,1.44,0.17,8.17,-1.86,4
31897,-10.73,0.99,1.62,1.15,7.01,-0.7,4
31922,-10.55,1.18,1.62,2.43,3.17,-2.53,4
31946,-10.8,1.21,1.67,4.13,0.54,-4.84,4
31971,-11.26,1.21,1.66,6.15,-2.5,-3.81,4
31996,-11.42,1.04,1.5,8.28,-1.04,1.74,4
32020,-11.11,1.1,1.48,10.78,2.19,7.11,4
32046,-10.68,1,1.37,12.67,1.52,9.06,4
32070,-10.53,0.93,1.22,14.44,-0.07,8.51,4
32095,-10.35,0.92,0.99,15.29,0.48,9,4
32120,-10.16,0.84,0.65,14.32,0.79,9.67,4
32144,-10.09,0.73,0.42,11.45,1.28,9.73,4
32169,-9.9,0.71,0.39,6.57,-0.07,8.21,4
32194,-9.85,0.67,0.48,2.06,-4.33,4.97,4
32219,-9.98,0.64,0.53,-1.11,-8.11,2.72,4
32243,-10.14,0.68,0.65,-2.94,-7.69,3.14,4
32268,-9.93,0.71,0.87,-3.98,-6.77,4.67,4
32293,-9.65,0.8,1.13,-4.89,-5.25,2.66,4
32317,-9.6,0.82,1.18,-3.79,-8.42,-1.37,4
32342,-9.86,0.79,1.31,-1.11,-5.43,-4.66,4
32366,-10.09,0.8,1.23,0.66,-4.15,-6.49,4
32391,-10.34,0.76,1.12,0.84,-0.98,-6.55,4
32415,-10.45,0.89,1.34,1.27,-3.72,-5.88,4
32441,-10.44,1.09,1.19,3.59,-2.93,-5.82,4
32466,-10.66,1.06,1.1,6.51,1.22,-6.61,4
32490,-10.96,0.91,0.74,6.69,7.19,-6.37,4
32515,-11.13,1,0.45,3.89,5.42,-4.05,4
32539,-10.95,1.07,0.44,-0.26,2.37,0.16,4
32564,-10.64,1.16,0.56,-3.79,1.89,3.33,4
32589,-10.24,1.19,0.8,-5.32,3.04,2.47,4
32614,-10.14,1.21,1.12,-5.93,3.96,-1.18,4
32639,-10.38,1.09,1.3,-5.81,4.2,-4.78,4
32663,-10.91,0.98,1.46,-4.83,1.46,-4.17,4
32688,-11.06,0.86,1.65,-2.09,0.06,0.1,4
