t_ms,ax,ay,az,gx,gy,gz,label
5,3.37,3.04,-8.24,3.22,0.48,-2.83,4
29,3.41,2.98,-8.41,4.74,-2.02,-2.77,4
53,3.56,3,-8.41,3.95,-0.74,-4.36,4
78,3.79,2.88,-8.4,3.16,5.12,-7.89,4
102,3.54,2.86,-8.35,4.5,1.58,-10.57,4
127,3.35,2.93,-8.32,4.93,-3.91,-11.25,4
152,3.19,2.92,-8.41,4.56,0.36,-11.18,4
177,3.1,2.8,-8.44,4.38,1.46,-10.51,4
201,2.68,2.98,-8.37,6.88,0.67,-6.73,4
226,2.94,2.76,-8.77,7.06,-6.59,-3.44,4
251,2.9,2.68,-8.77,3.46,-2.14,-2.4,4
275,3.23,2.62,-8.7,1.39,8.59,-2.71,4
300,3.66,2.7,-8.62,2.06,6.64,-5.45,4
324,3.56,2.75,-8.62,3.4,-1.53,-8.99,4
349,2.78,2.79,-8.41,3.83,-6.71,-8.81,4
373,2.78,2.83,-8.41,4.87,-0.43,-5.33,4
398,3.13,2.92,-8.36,7.12,-0.31,-4.54,4
423,3.03,2.84,-8.63,8.46,-3.48,-5.27,4
447,2.97,2.78,-8.88,6.69,-1.28,-5.51,4
472,3.1,2.63,-8.93,3.46,1.15,-6.31,4
496,2.96,2.74,-8.82,2.06,2.92,-6.61,4
521,2.79,2.76,-8.68,1.94,2.68,-5.94,4
546,2.87,2.73,-8.76,2.06,3.23,-4.17,4
570,2.89,2.67,-8.74,2.06,-0.43,-2.77,4
595,2.95,2.72,-8.77,1.09,3.04,-2.16,4
619,2.85,2.7,-8.96,-1.11,1.76,-1.79,4
644,2.88,2.76,-8.81,-3.31,-0.43,-1.86,4
668,2.83,2.75,-8.74,-5.07,3.47,-1.12,4
693,2.96,2.75,-8.56,-4.83,1.22,-0.64,4
718,2.96,2.8,-8.66,-4.4,-1.59,-0.33,4
742,2.92,2.84,-8.49,-3.73,-1.59,0.22,4
767,2.84,2.97,-8.38,-2.88,-0.68,1.38,4
791,3.06,2.93,-8.32,-2.45,-0.07,2.05,4
816,3.22,2.94,-8.44,-1.84,0.67,1.68,4
840,3.19,2.92,-8.44,-0.68,-2.02,0.95,4
865,2.92,2.92,-8.38,-0.62,-1.71,1.44,4
890,3.03,2.93,-8.33,-0.07,2.8,1.86,4
914,3.28,2.97,-8.43,1.63,0.73,2.23,4
939,3.3,2.89,-8.62,2.18,-2.14,1.25,4
963,3.13,2.93,-8.59,0.78,0.24,-0.15,4
988,3.17,3.02,-8.5,-0.44,1.95,-0.15,4
1012,3.19,2.94,-8.6,0.05,0.06,-0.03,4
1037,3.24,2.96,-8.62,0.66,-1.53,-0.45,4
1062,3.21,2.93,-8.55,1.21,-0.61,-1.86,4
1086,3.1,2.86,-8.55,1.51,-0.13,-2.65,4
1111,3.01,2.8,-8.52,1.57,-0.37,-2.71,4
1135,3.08,2.82,-8.57,1.69,-0.13,-2.4,4
1160,2.94,2.88,-8.45,1.76,-1.71,-2.04,4
1184,2.9,2.8,-8.53,2.06,-1.53,-1.55,4
1209,2.86,2.83,-8.58,2.12,-1.41,-0.94,4
1234,2.98,2.83,-8.7,1.82,0.36,-0.39,4
1258,2.85,2.85,-8.66,1.02,-0.49,0.16,4
1283,2.93,2.78,-8.62,0.35,0.06,0.46,4
1307,2.75,2.8,-8.55,-0.74,0.73,0.83,4
1332,2.8,2.78,-8.56,-1.17,2.31,1.62,4
1357,2.76,2.81,-8.49,0.05,2.25,2.29,4
1381,2.73,2.89,-8.66,1.45,1.28,3.57,4
1406,3.02,2.89,-8.94,1.51,2.13,5.28,4
1430,3.27,2.8,-9.04,-0.5,-0.55,5.95,4
1455,3.49,2.85,-9.06,-3.24,1.15,4.3,4
1479,3.7,2.89,-8.76,-5.38,0.67,0.89,4
1504,3.7,2.85,-8.49,-5.62,-1.83,-3.38,4
1529,3.21,2.93,-8.21,-3.55,-2.08,-6.12,4
1554,2.91,2.96,-8.17,-0.5,-2.02,-5.57,4
1579,2.7,2.91,-8.24,1.69,-3.6,-2.95,4
1603,2.78,2.89,-8.46,2.3,-0.68,0.22,4
1628,2.88,2.87,-8.52,0.96,0.79,1.25,4
1652,3.09,2.79,-8.6,-1.17,1.95,1.32,4
1677,3.11,2.87,-8.56,-2.76,4.2,0.83,4
1702,3.15,2.97,-8.46,-3.49,5.24,0.64,4
1726,3.2,3.02,-8.4,-2.21,2.07,0.64,4
1751,3.39,3.03,-8.34,0.23,1.09,-0.82,4
1775,3.43,2.86,-8.43,2.73,-1.22,-3.56,4
1800,3.26,2.93,-8.56,4.01,-2.87,-5.94,4
1824,3.1,2.88,-8.68,3.71,-3.72,-6.73,4
1849,2.89,2.86,-8.76,2.67,-2.14,-6.31,4
1874,2.63,2.87,-8.79,2.06,-2.75,-5.15,4
1898,2.66,2.83,-8.77,0.17,-1.89,-2.95,4
1923,2.75,2.85,-8.62,-1.23,1.76,-1.55,4
1947,2.67,2.91,-8.62,-2.33,0.48,-0.33,4
1972,2.79,2.99,-8.79,-2.15,2.01,0.52,4
1997,2.84,2.99,-8.68,-2.27,-0.25,1.74,4
2021,2.9,2.99,-8.59,-2.76,0.97,2.05,4
2046,2.97,3,-8.53,-2.39,1.76,1.93,4
2070,3,3.02,-8.58,-1.41,-2.26,1.68,4
2096,3.07,2.91,-8.45,-1.11,-0.31,1.13,4
2120,2.94,3.01,-8.57,-1.05,-0.86,1.07,4
2145,2.9,2.99,-8.48,-1.41,-1.41,1.19,4
2170,3.08,2.99,-8.58,-1.35,2.68,1.32,4
2194,3.06,2.97,-8.48,-0.81,-1.59,0.71,4
2219,2.95,3,-8.53,-0.26,-1.04,-0.39,4
2243,2.96,3.03,-8.49,0.54,0.24,-0.45,4
2268,2.95,2.99,-8.36,1.45,-0.25,-0.03,4
2292,2.95,2.98,-8.45,2.24,-0.55,0.16,4
2317,2.99,3.01,-8.51,2.12,-2.08,0.1,4
2342,3.2,2.95,-8.5,1.57,0.54,-0.64,4
2366,3.13,2.93,-8.45,1.33,-1.1,-1.73,4
2391,2.88,2.8,-8.42,1.94,-1.1,-1.86,4
2415,2.89,2.94,-8.31,3.16,0.85,-0.94,4
2440,2.81,2.96,-8.3,4.44,0.24,-0.09,4
2464,2.77,2.95,-8.44,5.17,3.47,0.46,4
2489,2.99,2.89,-8.55,5.35,3.11,1.01,4
2514,3.02,2.91,-8.89,4.62,3.59,1.25,4
2538,3.21,2.87,-8.97,1.45,6.64,1.44,4
2563,3.26,2.76,-9,-0.99,5,0.64,4
2587,3.31,2.89,-8.9,-0.87,0.54,-0.21,4
2612,3.23,2.92,-8.87,-1.35,-1.16,-0.51,4
2637,2.98,2.97,-8.68,-2.15,0.73,0.28,4
2661,3.11,2.91,-8.5,-2.57,0.79,0.22,4
2687,3.35,2.92,-8.37,-2.09,2.86,-0.76,4
2711,3.08,2.97,-8.43,-0.44,0.3,-1.55,4
2736,3.02,2.92,-8.45,1.33,-1.47,-1.12,4
2760,3.02,2.9,-8.55,1.82,1.15,-0.03,4
2785,3.05,2.92,-8.62,1.39,1.22,0.34,4
2810,2.97,2.81,-8.7,0.41,0.42,0.16,4
2834,2.97,2.89,-8.6,-0.07,0.3,0.77,4
2859,2.96,2.87,-8.57,-1.17,0.48,1.32,4
2883,2.98,2.87,-8.53,-1.72,3.59,1.5,4
2908,3,2.88,-8.34,-1.05,3.78,0.64,4
2932,3.01,2.78,-8.39,0.84,0.48,0.52,4
2957,2.94,2.86,-8.62,1.69,-0.43,1.01,4
2982,2.97,2.81,-8.71,1.57,0.54,1.68,4
3006,3.23,2.75,-8.71,0.96,0.36,1.86,4
3031,3.22,2.74,-8.72,-0.01,0.67,1.74,4
3055,2.99,2.81,-8.64,-0.99,0.61,2.05,4
3080,3.04,2.86,-8.59,-0.93,2.56,3.02,4
3104,3.19,2.85,-8.49,-0.44,0.24,3.82,4
3129,3.25,2.84,-8.65,-0.68,1.95,3.39,4
3154,3.19,2.96,-8.53,-0.87,3.04,2.53,4
3178,3.21,2.93,-8.61,-0.87,1.76,2.47,4
3203,3.31,2.9,-8.67,0.23,1.4,2.53,4
3227,3.25,2.84,-8.85,0.17,-1.47,2.47,4
3252,3.3,2.89,-8.82,-2.21,-0.68,1.62,4
3277,3.41,2.91,-8.7,-5.13,2.19,-0.27,4
3302,3.22,2.87,-8.52,-5.68,1.46,-1.43,4
3327,3.12,2.87,-8.2,-3.31,-1.04,-1.31,4
3351,3.04,2.98,-8.28,-0.62,-2.14,-0.03,4
3376,3,2.9,-8.37,0.6,0.18,1.38,4
3400,2.95,2.95,-8.48,0.35,-1.16,2.23,4
3425,3.12,2.91,-8.52,-0.62,0.61,2.72,4
3450,3.2,2.97,-8.6,-0.62,1.95,3.21,4
3474,3.2,2.98,-8.51,-0.81,-0.19,3.08,4
3499,3.31,2.87,-8.67,-1.84,1.64,2.6,4
3523,3.43,2.91,-8.62,-2.15,0.91,1.32,4
3548,3.42,2.94,-8.56,-2.7,-0.43,-0.03,4
3572,3.31,2.87,-8.57,-3.79,1.09,-1.18,4
3597,3.35,2.98,-8.42,-4.83,1.64,-1.67,4
3622,3.12,2.97,-8.09,-4.16,0.97,-1.67,4
3646,3.09,2.96,-8.02,-1.9,0.48,-1.31,4
3671,3.13,2.95,-8.16,0.9,-0.61,-0.45,4
3695,3.11,3.03,-8.23,2.43,-1.28,0.03,4
3720,3.1,2.94,-8.39,3.16,0.61,0.52,4
3744,3.07,2.92,-8.46,2.61,0.73,1.32,4
3769,3.22,2.86,-8.58,1.82,0.54,1.86,4
3794,3.29,2.91,-8.6,1.02,0.73,1.5,4
3818,3.3,2.89,-8.53,1.69,0.54,0.77,4
3843,3.27,2.94,-8.47,1.51,-1.47,0.28,4
3868,3.28,2.99,-8.51,0.17,1.15,-0.45,4
3893,3.26,2.97,-8.49,-0.38,0.91,-0.51,4
3918,3.15,2.97,-8.51,0.41,-0.98,-0.39,4
3942,3.14,2.92,-8.54,1.51,-0.19,0.03,4
3967,3.16,2.87,-8.55,1.63,-0.8,0.71,4
3991,3.21,2.79,-8.61,0.54,0.12,0.83,4
4016,3.19,2.8,-8.65,-0.74,0.12,0.58,4
4040,3.14,2.83,-8.56,-1.11,0.42,0.52,4
4065,3.06,2.82,-8.41,-1.35,1.52,1.5,4
4090,3.07,2.87,-8.41,-1.05,-0.19,2.35,4
4114,3.24,2.92,-8.38,-0.56,1.46,2.96,4
4139,3.29,2.92,-8.43,0.84,1.82,2.78,4
4163,3.31,2.93,-8.51,1.57,-1.77,2.17,4
4188,3.44,2.93,-8.6,1.57,0.3,1.19,4
4212,3.33,2.94,-8.6,1.63,-0.86,0.4,4
4237,3.31,2.93,-8.68,1.02,-1.16,0.71,4
4262,3.38,2.92,-8.72,-0.2,-0.98,0.58,4
4286,3.36,2.97,-8.64,-2.51,-0.31,0.16,4
4311,3.33,2.99,-8.41,-3.37,1.22,0.16,4
4335,3.25,2.98,-8.33,-2.57,0.79,0.03,4
4360,3.42,2.95,-8.34,-0.44,0.12,-0.15,4
4384,3.38,2.96,-8.35,0.17,-2.08,-1.25,4
4409,3.25,2.98,-8.48,-0.2,0.18,-1.98,4
4434,3.21,2.83,-8.28,0.17,0,-2.53,4
4458,3.2,2.96,-8.37,0.72,-0.86,-2.04,4
4484,3.15,2.89,-8.38,1.33,0.06,-1.49,4
4508,3.06,2.86,-8.38,1.94,-0.19,-1.43,4
4533,3.2,2.85,-8.64,2.37,-1.96,-0.76,4
4558,3.06,2.92,-8.53,0.66,-2.08,-0.21,4
4582,2.99,2.98,-8.41,-1.23,3.04,0.4,4
4607,3.12,2.98,-8.43,-0.13,2.86,1.32,4
4631,3.19,2.96,-8.49,1.69,-0.8,1.86,4
4656,3.25,2.96,-8.52,2.12,-0.37,1.99,4
4680,3.36,2.92,-8.6,1.09,0.73,1.38,4
4705,3.42,2.9,-8.59,-0.01,-0.49,-0.09,4
4730,3.28,2.94,-8.5,-0.62,0.24,-1.06,4
4754,3.08,2.95,-8.41,0.05,-0.55,-0.76,4
4779,3.07,2.92,-8.4,0.78,-0.92,0.28,4
4803,3.25,2.88,-8.37,0.78,0.24,0.1,4
4828,3.1,2.91,-8.41,1.45,-1.35,-0.03,4
4852,3.04,2.92,-8.48,1.94,-0.92,0.52,4
4877,3.18,2.89,-8.45,1.69,0.06,1.8,4
4902,3.25,2.82,-8.68,0.72,-0.86,1.93,4
4926,3.35,2.88,-8.6,-0.44,0.48,0.77,4
4951,3.34,2.91,-8.63,-0.81,0.12,-0.33,4
4975,3.29,2.89,-8.55,-0.99,-1.35,-0.33,4
5000,3.15,2.84,-8.54,-1.23,0.73,0.1,4
5024,3.23,2.9,-8.4,-0.87,1.09,0.1,4
5049,3.3,2.93,-8.4,-0.26,0.06,-0.15,4
5074,3.31,2.92,-8.37,0.54,0.73,0.16,4
5099,3.35,2.93,-8.45,0.48,0.06,-0.15,4
5124,3.39,2.88,-8.4,0.35,0.61,-1.25,4
5148,3.29,2.85,-8.53,1.33,-0.37,-2.04,4
5173,3.1,2.84,-8.68,1.94,-0.92,-2.04,4
5198,2.95,2.91,-8.67,0.84,-0.13,-0.33,4
5222,3.25,2.84,-8.77,-0.87,1.95,0.71,4
5247,3.26,2.83,-8.74,-2.09,1.58,0.28,4
5271,3.24,2.82,-8.68,-2.02,-0.68,-0.64,4
5296,3.17,3,-8.46,-2.7,-1.41,-1,4
5320,3.14,2.91,-8.39,-2.88,0.85,-0.64,4
5345,3.15,2.95,-8.29,-1.66,-0.86,-0.51,4
5370,3.2,2.9,-8.35,-0.2,-3.18,-1.18,4
5394,3.12,2.83,-8.42,1.21,-3.85,-1.55,4
5419,2.84,2.89,-8.4,1.69,-4.03,-0.15,4
5443,2.6,2.96,-8.26,4.01,-4.03,2.72,4
5468,2.92,2.89,-8.48,4.26,-0.25,5.1,4
5492,3.16,2.84,-8.78,2.85,-2.81,5.83,4
5517,3.19,2.81,-8.75,0.11,-1.47,5.64,4
5542,3.48,2.86,-8.78,-2.51,4.02,3.75,4
5566,3.43,2.91,-8.73,-3.37,0.79,1.8,4
5591,3.24,3,-8.59,-2.88,-1.47,1.13,4
5615,3.2,2.99,-8.53,-2.7,0.36,1.32,4
5641,3.36,2.93,-8.51,-2.02,0.36,1.32,4
5666,3.32,2.92,-8.57,-1.48,-1.96,0.52,4
5690,3.2,2.88,-8.53,-1.6,-1.65,-0.51,4
5715,3.12,2.88,-8.51,-2.15,-0.37,-0.09,4
5739,3.11,2.91,-8.52,-2.15,0.18,0.77,4
5764,3.09,2.92,-8.45,-2.76,1.34,1.07,4
5788,3.17,2.92,-8.44,-2.82,0.48,1.56,4
5813,3.3,2.9,-8.38,-2.63,0.42,1.38,4
5838,3.25,2.8,-8.39,-2.45,1.4,0.77,4
5862,3.12,2.87,-8.32,-1.66,0.67,0.4,4
5887,3.1,2.9,-8.51,-1.23,0.06,0.71,4
5911,3.14,2.88,-8.3,-1.78,0.12,0.64,4
5936,3.06,2.9,-8.35,-1.41,0.97,0.52,4
5960,3.18,2.91,-8.32,-0.2,1.28,0.46,4
5985,3.24,2.92,-8.24,1.57,-0.31,1.13,4
6010,3.14,2.9,-8.4,1.63,-0.31,1.44,4
6034,3.21,2.89,-8.42,1.33,2.07,1.01,4
6059,3.22,2.97,-8.44,1.57,0.48,1.07,4
6083,3.24,2.91,-8.58,1.63,0.79,1.56,4
6108,3.29,2.91,-8.68,1.09,0.79,1.44,4
6132,3.37,2.93,-8.61,-0.01,-0.19,0.64,4
6157,3.27,2.92,-8.6,-0.87,0.48,0.16,4
6182,3.28,2.97,-8.51,-0.56,2.13,0.4,4
6207,3.28,2.94,-8.49,-0.26,-0.55,0.34,4
6232,3.3,3,-8.45,-0.81,0.48,0.03,4
6256,3.33,3.02,-8.38,-0.68,2.56,0.03,4
6281,3.34,3.03,-8.36,-0.01,0.12,-0.82,4
6306,3.35,2.98,-8.48,0.96,-0.37,-1.67,4
6330,3.32,2.96,-8.61,1.09,-0.49,-1.98,4
6355,3.2,2.9,-8.57,0.48,-0.68,-1.55,4
6379,3.2,2.88,-8.6,-0.62,-0.25,-1.37,4
6404,3.19,2.97,-8.55,-1.05,0.18,-1.98,4
6428,3.1,2.86,-8.49,-1.23,0.36,-2.1,4
6453,2.99,2.92,-8.36,-0.26,0.3,-1,4
6478,3.03,2.92,-8.33,0.54,-0.13,0.52,4
6502,3.12,2.88,-8.43,0.96,-0.13,0.89,4
6527,3.18,2.84,-8.44,1.27,-0.25,0.28,4
6551,3.19,2.87,-8.41,1.51,-0.92,-0.39,4
6576,3.13,2.87,-8.44,1.21,-0.25,-0.03,4
6600,3.02,2.8,-8.51,1.21,-0.68,0.77,4
6625,3.06,2.89,-8.44,1.21,-0.74,1.74,4
6650,3.25,2.85,-8.47,1.69,0.06,2.17,4
6674,3.19,2.86,-8.44,2,-0.61,1.86,4
6699,3.16,2.89,-8.45,1.69,-0.74,2.47,4
6723,3.23,2.93,-8.42,0.96,1.15,2.6,4
6748,3.26,2.98,-8.48,1.09,3.23,2.78,4
6772,3.37,2.99,-8.47,2.3,0.79,2.47,4
6798,3.4,3,-8.61,2.49,-0.92,1.99,4
6823,3.55,2.93,-8.57,1.45,1.89,0.52,4
6847,3.5,2.92,-8.74,0.41,0.42,-1.18,4
6872,3.26,2.91,-8.71,-0.07,-0.31,-2.1,4
6896,3.2,2.89,-8.72,-0.26,-1.41,-1.67,4
6921,3.2,2.93,-8.62,-1.17,-0.8,-1.06,4
6946,3.13,2.91,-8.55,-1.84,1.4,-1.06,4
6970,3.11,2.87,-8.41,-1.41,1.03,-0.94,4
6995,3.13,2.91,-8.58,-0.5,-0.25,-0.21,4
7019,3.2,2.84,-8.58,-0.87,-0.43,0.28,4
7044,3.18,2.77,-8.64,-1.66,0.18,-0.03,4
7068,3.23,2.84,-8.58,-2.09,-0.31,-0.64,4
7093,3.18,2.81,-8.46,-2.02,0.67,-0.09,4
7118,3.05,2.82,-8.46,-1.84,0.3,0.58,4
7142,3.08,2.83,-8.36,-1.35,-0.31,1.19,4
7167,3.02,2.9,-8.35,-1.05,1.28,1.8,4
7191,3.15,2.89,-8.33,0.54,1.52,3.08,4
7216,3.23,2.91,-8.34,1.27,0.12,3.45,4
7240,3.37,2.91,-8.53,1.27,0.12,2.72,4
7265,3.4,2.9,-8.51,0.66,0.12,1.38,4
7290,3.23,3.02,-8.44,-0.2,-0.19,0.64,4
7314,3.15,2.95,-8.31,-0.07,1.4,1.01,4
7339,3.19,2.92,-8.32,0.72,0.67,1.74,4
7363,3.28,2.89,-8.46,1.76,0.79,2.05,4
7389,3.22,2.9,-8.65,2.61,-1.1,2.11,4
7413,3.35,2.94,-8.78,1.69,-1.96,1.86,4
7438,3.34,2.97,-8.89,-0.32,1.76,1.8,4
7463,3.34,2.92,-8.87,-1.9,0.61,2.05,4
7487,3.48,2.88,-8.81,-3.37,-0.13,1.5,4
7512,3.52,2.91,-8.62,-4.28,-1.71,-0.09,4
7536,3.29,2.85,-8.53,-5.2,-1.35,-1.31,4
7561,3.19,2.9,-8.23,-4.89,2.31,-1.12,4
7586,3.24,2.99,-8.08,-3.24,0.12,-0.27,4
7610,3.24,2.85,-7.97,-0.81,-0.74,-0.21,4
7635,3.13,2.77,-7.97,1.15,0.48,-0.27,4
7659,3.11,2.79,-8.07,3.71,0.97,1.01,4
7684,3.21,2.84,-8.44,4.87,0.54,1.99,4
7708,3.35,2.7,-8.61,4.8,0.48,2.29,4
7733,3.34,2.8,-8.68,2.73,0.36,1.62,4
7758,3.39,2.86,-8.58,0.9,2.01,0.46,4
7782,3.31,2.85,-8.61,0.54,1.34,0.03,4
7807,3.22,2.91,-8.47,1.09,-0.13,0.22,4
7831,3.23,2.9,-8.54,1.33,-0.61,0.89,4
7856,3.25,2.92,-8.42,1.02,0.06,1.25,4
7880,3.32,2.88,-8.62,0.9,2.5,1.32,4
7905,3.41,2.9,-8.55,1.09,-0.37,0.46,4
7930,3.4,2.91,-8.66,1.15,-1.1,-0.09,4
7954,3.32,2.85,-8.59,0.6,-1.04,-0.09,4
7980,3.27,2.88,-8.61,-0.62,-0.31,0.1,4
8004,3.38,2.86,-8.56,-1.78,1.64,-0.09,4
8029,3.38,2.91,-8.56,-1.41,-0.37,-0.15,4
8053,3.35,2.85,-8.47,-0.74,-1.35,-0.03,4
8078,3.33,2.92,-8.46,-1.29,-0.43,-0.27,4
8103,3.31,2.88,-8.49,-1.66,-0.07,-0.57,4
8127,3.23,2.86,-8.41,-1.9,1.89,-0.09,4
8152,3.22,2.86,-8.36,-0.74,1.09,0.4,4
8176,3.44,2.81,-8.42,0.11,-0.74,0.22,4
8201,3.41,2.87,-8.42,-0.32,0.97,-0.27,4
8226,3.33,2.79,-8.52,-0.44,1.82,-0.7,4
8250,3.29,2.84,-8.4,0.23,0.36,-0.33,4
8275,3.27,2.83,-8.53,-0.01,-2.02,-0.39,4
8299,3.2,2.8,-8.4,-0.5,2.5,-0.15,4
8324,3.24,2.85,-8.41,-0.38,1.15,0.16,4
8348,3.33,2.86,-8.42,0.35,-0.61,0.4,4
8373,3.33,2.84,-8.48,0.78,0,0.1,4
8398,3.25,2.86,-8.4,1.21,0.24,0.34,4
8422,3.27,2.89,-8.62,1.39,-0.55,0.58,4
8447,3.29,2.87,-8.61,0.41,-0.07,0.83,4
8471,3.28,2.81,-8.54,-0.81,0.36,0.46,4
8496,3.26,2.87,-8.51,-1.23,1.22,0.52,4
8520,3.29,2.91,-8.44,-0.87,-0.68,0.83,4
8545,3.3,2.83,-8.48,-0.68,-0.07,1.38,4
8570,3.26,2.87,-8.47,-0.87,-0.19,1.5,4
8595,3.37,2.85,-8.53,-1.35,0.36,1.07,4
8620,3.46,2.89,-8.44,-1.11,0.91,0.22,4
8644,3.38,2.86,-8.35,-0.44,-1.71,-0.45,4
8669,3.24,2.91,-8.34,-0.07,-1.16,-0.15,4
8693,3.36,2.95,-8.33,0.6,0.54,0.4,4
8718,3.35,2.9,-8.42,1.45,0.18,0.28,4
8743,3.28,2.87,-8.47,1.45,-1.77,-0.15,4
8767,3.2,2.88,-8.57,0.29,-0.68,-0.33,4
8792,3.2,2.93,-8.49,-0.32,0.79,0.83,4
8816,3.28,2.92,-8.55,-0.07,0.06,1.5,4
8841,3.41,2.83,-8.46,0.23,-0.92,0.77,4
8866,3.4,2.81,-8.58,-0.2,-1.35,-0.57,4
8890,3.26,2.86,-8.5,-0.99,-0.31,-1,4
8915,3.14,2.87,-8.51,-1.54,-0.43,-0.33,4
8939,3.21,2.83,-8.55,-1.05,0.06,0.52,4
8964,3.23,2.86,-8.49,-1.05,-1.83,0.83,4
8988,3.08,2.84,-8.42,-1.41,-0.31,0.77,4
9013,3.09,2.95,-8.37,-1.41,1.64,1.8,4
9038,3.29,2.97,-8.38,-0.13,1.03,2.9,4
9062,3.45,2.9,-8.55,1.27,-1.65,2.72,4
9087,3.36,2.88,-8.54,1.21,-2.63,1.13,4
9111,3.3,2.94,-8.61,-0.62,0,0.83,4
9136,3.25,2.98,-8.56,-2.33,1.28,1.93,4
9160,3.25,2.96,-8.43,-2.7,0.85,2.23,4
9186,3.44,2.88,-8.36,-2.33,1.09,1.25,4
9211,3.31,2.96,-8.21,-1.29,-0.61,0.58,4
9235,3.27,2.97,-8.35,-0.32,-0.25,0.95,4
9260,3.23,2.85,-8.44,-0.01,-0.68,1.19,4
9284,3.33,2.87,-8.51,-0.74,-0.07,0.95,4
9309,3.35,2.88,-8.45,-1.17,0.91,0.22,4
9333,3.3,2.85,-8.39,-0.62,-0.07,0.22,4
9358,3.33,2.88,-8.36,-0.01,0.06,0.34,4
9383,3.29,2.86,-8.39,0.05,0.36,0.64,4
9407,3.22,2.85,-8.39,0.17,0.18,0.95,4
9432,3.13,2.94,-8.46,-0.07,1.15,0.95,4
9456,3.27,2.97,-8.37,0.29,1.95,1.44,4
9481,3.31,2.9,-8.43,0.84,1.15,1.86,4
9506,3.41,2.87,-8.57,1.27,1.34,1.5,4
9530,3.41,2.89,-8.55,0.6,-0.68,0.22,4
9555,3.41,2.84,-8.61,-0.38,0.06,-0.88,4
9579,3.11,2.83,-8.44,-0.93,0.12,-0.88,4
9604,3.17,2.9,-8.39,-0.07,0.85,0.4,4
9628,3.19,2.86,-8.21,0.66,-0.61,1.38,4
9653,3.25,2.91,-8.4,0.78,0.67,1.99,4
9678,3.32,2.88,-8.46,1.09,1.95,2.23,4
9702,3.45,2.93,-8.44,0.72,0,1.8,4
9727,3.47,2.86,-8.47,0.48,1.28,1.07,4
9751,3.35,2.82,-8.51,0.48,0.67,0.77,4
9776,3.3,2.84,-8.53,-0.01,-0.68,1.44,4
9800,3.42,2.8,-8.46,-0.93,1.34,1.74,4
9825,3.43,2.8,-8.47,-0.74,2.5,1.38,4
9851,3.37,2.77,-8.35,-0.38,0.06,0.89,4
9875,3.38,2.83,-8.44,0.17,0.54,1.44,4
9900,3.37,2.83,-8.42,0.17,-0.19,2.23,4
9924,3.52,2.81,-8.38,-0.68,1.15,1.5,4
9949,3.5,2.82,-8.46,-0.44,0.97,-0.15,4
9973,3.42,2.77,-8.34,0.41,-0.68,-0.27,4
9998,3.3,2.9,-8.35,0.96,-0.49,0.77,4
10023,3.44,2.85,-8.41,0.96,-0.68,1.01,4
10047,3.53,2.81,-8.4,0.41,0.85,-0.51,4
10072,3.49,2.84,-8.48,1.33,0.48,-1.06,4
10096,3.35,2.85,-8.55,1.09,-2.93,-0.57,4
10121,3.29,2.89,-8.54,-0.07,-0.37,0.03,4
10146,3.31,2.92,-8.51,-0.5,1.4,0.52,4
10170,3.4,2.84,-8.53,-0.01,0.67,0.4,4
10195,3.54,2.84,-8.52,-0.01,0.24,0.28,4
10219,3.58,2.84,-8.53,-0.68,-1.47,-0.64,4
10244,3.5,2.82,-8.5,-1.35,-0.43,-1.73,4
10269,3.24,2.78,-8.4,-1.6,0.61,-1.73,4
10294,3.22,2.83,-8.36,-0.44,-0.19,-0.57,4
10319,3.32,2.88,-8.33,0.41,-1.22,0.34,4
10343,3.29,2.88,-8.43,0.11,0.61,0.28,4
10368,3.29,2.85,-8.45,0.05,0.61,0.28,4
10392,3.38,2.85,-8.54,0.05,-0.19,0.64,4
10417,3.43,2.83,-8.53,-0.26,-0.07,0.58,4
10441,3.36,2.86,-8.52,-0.56,-0.68,0.28,4
10466,3.33,2.86,-8.58,-0.56,-1.28,0.16,4
10491,3.38,2.85,-8.34,-0.56,-1.28,0.34,4
10515,3.36,2.85,-8.4,0.05,-1.53,0.03,4
10541,3.34,2.86,-8.4,-0.13,-1.96,-0.64,4
10565,3.27,2.87,-8.37,-0.44,0.3,-0.76,4
10590,3.17,2.96,-8.38,-0.2,0.61,-0.03,4
10615,3.18,2.93,-8.53,-0.07,-0.92,1.07,4
10639,3.35,2.86,-8.55,-0.32,-0.55,0.95,4
10664,3.41,2.85,-8.48,-0.56,0.54,0.46,4
10688,3.22,2.89,-8.43,-0.62,-0.68,0.03,4
10713,3.28,2.9,-8.39,-0.44,1.46,0.46,4
10737,3.33,2.96,-8.46,0.11,-0.49,0.4,4
10762,3.35,2.88,-8.46,0.78,-1.04,0.58,4
10787,3.24,2.8,-8.5,0.54,-1.04,0.46,4
10811,3.19,2.91,-8.53,-0.07,-0.43,0.28,4
10836,3.24,2.92,-8.61,0.17,-0.55,1.25,4
10861,3.21,2.89,-8.58,-0.01,-1.89,2.17,4
10886,3.36,2.84,-8.62,-1.41,0.18,1.8,4
10910,3.48,2.89,-8.61,-2.7,2.01,1.13,4
10935,3.47,2.82,-8.6,-3.18,0.61,0.58,4
10960,3.4,2.9,-8.32,-2.45,0.12,-0.21,4
10984,3.35,2.88,-8.31,-1.23,-1.53,-0.21,4
11009,3.22,2.94,-8.23,-0.87,-0.19,0.4,4
11033,3.24,2.88,-8.16,-0.74,3.35,1.13,4
11058,3.39,2.94,-8.32,0.84,1.09,1.07,4
11082,3.3,2.89,-8.44,1.94,-1.47,0.77,4
11107,3.24,2.9,-8.59,1.09,1.22,1.01,4
11133,3.24,2.85,-8.58,0.23,1.03,1.44,4
11157,3.39,2.88,-8.64,-0.62,0.3,1.56,4
11182,3.45,2.84,-8.66,-1.23,-0.37,0.83,4
11206,3.26,2.76,-8.5,-1.9,-1.16,0.28,4
11231,3.25,2.84,-8.44,-1.54,0.12,0.77,4
11256,3.28,2.89,-8.35,-1.29,-0.74,1.25,4
11280,3.27,2.93,-8.32,-0.93,0.18,1.8,4
11305,3.36,2.92,-8.28,-0.56,0.67,1.86,4
11329,3.49,2.93,-8.34,-0.2,0.24,1.07,4
11354,3.45,2.86,-8.28,0.78,-0.31,0.46,4
11378,3.33,2.87,-8.32,0.78,-0.25,0.71,4
11403,3.41,2.85,-8.38,0.9,0.97,0.71,4
11429,3.44,2.88,-8.35,1.45,1.4,0.1,4
11453,3.35,2.85,-8.4,2.67,-0.74,0.64,4
11478,3.26,2.89,-8.56,1.94,-1.41,1.25,4
11502,3.33,2.86,-8.55,0.54,1.7,1.44,4
11527,3.45,2.92,-8.61,0.05,2.62,1.38,4
11551,3.58,2.81,-8.64,0.66,0.61,0.89,4
11576,3.52,2.85,-8.65,0.54,-1.77,-0.09,4
11601,3.45,2.88,-8.56,-1.11,-0.8,-0.82,4
11625,3.42,2.89,-8.32,-2.57,1.76,-0.94,4
11650,3.31,2.85,-8.46,-1.72,2.5,-1.18,4
11674,3.42,2.94,-8.31,0.29,-1.47,-0.82,4
11699,3.3,2.9,-8.32,0.54,-1.89,-0.64,4
11725,3.27,2.9,-8.33,0.17,1.52,-0.57,4
11749,3.32,2.83,-8.35,0.78,2.37,-0.15,4
11774,3.52,2.93,-8.46,1.33,-1.22,-0.64,4
11798,3.39,2.83,-8.61,0.72,-1.96,-1.18,4
11823,3.26,2.82,-8.45,0.23,-0.07,-1.25,4
11847,3.34,2.86,-8.54,-0.13,0.36,-0.88,4
11872,3.29,2.83,-8.45,-0.13,-0.86,-0.39,4
11897,3.25,2.83,-8.37,-0.26,-0.49,-0.09,4
11921,3.26,2.77,-8.38,-0.01,-0.25,0.1,4
11946,3.24,2.86,-8.46,-0.32,0.3,0.95,4
11970,3.35,2.84,-8.44,-0.13,0.54,1.44,4
11996,3.33,2.81,-8.46,-0.32,-1.28,1.25,4
12020,3.36,2.91,-8.43,-0.74,1.15,1.19,4
12045,3.32,2.93,-8.42,-0.62,0.24,1.07,4
12070,3.23,2.91,-8.42,-0.38,1.58,1.38,4
12094,3.35,2.96,-8.46,0.29,1.22,1.93,4
12119,3.33,2.9,-8.44,0.29,-1.59,1.5,4
12143,3.28,2.91,-8.55,-0.01,2.01,0.83,4
12168,3.15,3.01,-8.61,-0.01,2.25,1.13,4
12192,3.38,3.02,-8.86,-0.01,0.12,2.84,4
12217,3.75,2.96,-9,-1.84,-1.1,3.08,4
12242,3.94,2.8,-8.88,-4.28,-0.74,0.28,4
12266,3.94,2.79,-8.6,-5.81,-0.31,-3.68,4
12292,3.6,2.86,-8.21,-6.05,-1.77,-6.06,4
12316,3.2,2.85,-7.86,-4.16,-1.53,-5.15,4
12341,3.02,2.85,-7.72,-0.99,0.12,-2.16,4
12366,3.21,2.81,-7.83,2.49,-0.98,0.34,4
12390,3.34,2.85,-8.1,3.1,-0.68,1.07,4
12415,3.48,2.94,-8.41,1.45,2.56,1.07,4
12439,3.73,2.91,-8.45,0.11,2.01,-0.21,4
12464,3.74,3.02,-8.34,0.78,0.42,-3.07,4
12488,3.4,3.05,-8.38,2.18,-1.53,-5.09,4
12513,3.16,3.1,-8.46,2.61,-1.65,-4.72,4
12538,3.1,3.08,-8.6,2.55,-0.07,-3.26,4
12563,3.21,3.07,-8.61,2.06,-1.77,-2.83,4
12588,3.3,3.1,-8.74,0.72,-2.02,-3.99,4
12612,3.03,3.07,-8.69,-0.38,-2.02,-4.54,4
12637,3.02,3.02,-8.69,-1.48,-1.71,-2.89,4
12661,3.01,2.98,-8.65,-2.15,-0.68,-1,4
12686,3.18,2.9,-8.52,-2.02,-0.19,-0.76,4
12711,3.1,2.9,-8.52,-2.39,-1.16,-0.39,4
12735,3.1,2.97,-8.39,-3.43,1.03,1.68,4
12760,3.11,2.84,-8.37,-4.04,2.86,3.39,4
12784,3.39,2.91,-8.22,-3.18,4.02,3.69,4
12809,3.54,2.88,-8.25,-2.09,0.42,2.41,4
12834,3.49,2.96,-8.12,-0.87,0.54,0.52,4
12859,3.36,2.96,-8.18,0.54,2.43,-0.33,4
12884,3.37,2.99,-8.29,2.06,-0.98,-0.76,4
12908,3.3,2.96,-8.46,3.04,-1.71,-0.39,4
12933,3.18,2.96,-8.63,3.4,-2.2,0.16,4
12957,3.21,2.96,-8.71,1.76,-1.71,1.01,4
12982,3.31,2.99,-8.62,-0.93,0.91,1.38,4
13007,3.17,3.03,-8.57,-1.9,1.64,1.74,4
13031,3.3,3.03,-8.58,-2.02,-0.74,1.74,4
13056,3.28,3.09,-8.72,-2.51,-5.49,2.47,4
13080,3.18,3.15,-8.66,-4.59,-2.5,3.02,4
13105,3.29,3.15,-8.39,-6.17,0.06,3.02,4
13130,3.44,3.08,-8.41,-5.13,-1.22,2.66,4
13155,3.42,3.14,-8.44,-3.61,-3.05,2.47,4
13180,3.36,3.21,-8.36,-3.49,-3.3,2.66,4
13204,3.33,3.12,-8.25,-5.01,-0.98,2.05,4
13229,3.35,3.14,-8,-5.74,2.62,1.38,4
13253,3.33,3.2,-8,-3.67,1.76,1.13,4
13278,3.25,3.08,-8.13,-1.6,-1.22,0.83,4
13303,3.05,3.06,-8.25,-0.13,-0.68,-0.21,4
13327,2.75,3.07,-8.42,-0.01,-0.43,0.83,4
13352,2.59,3.11,-8.83,-2.09,0.3,5.89,4
13376,2.82,3.02,-8.99,-6.41,2.13,9.91,4
13402,3.23,3.1,-8.86,-10.13,4.26,11.86,4
13426,3.78,3.1,-8.57,-11.66,5.24,10.03,4
13451,4.03,3.14,-8.19,-11.35,1.7,5.22,4
13476,3.73,3.19,-7.89,-8.67,-2.81,1.07,4
13500,3.52,3.29,-7.64,-4.89,-3.48,-0.51,4
13525,3.4,3.35,-7.48,-0.5,-3.18,-1,4
13549,3.33,3.19,-7.56,4.32,-6.71,-1.61,4
13574,3.35,3.21,-7.75,8.46,-7.57,-1.49,4
13599,3.39,3.14,-8.14,10.35,-8.72,-1.31,4
13624,3.22,3.03,-8.41,8.95,-10.8,-0.94,4
13649,3.2,2.97,-8.52,7,-4.94,-0.7,4
13673,3.16,2.99,-8.38,4.68,-3.97,-0.03,4
13698,3.06,3.02,-8.34,3.83,-3.85,0.77,4
13722,2.9,3.04,-8.33,3.95,-1.1,2.78,4
13747,3.07,3.08,-8.27,3.89,-1.16,4.24,4
13771,3.11,3.07,-8.32,4.07,1.4,5.83,4
13796,3.18,3.07,-8.38,4.68,3.23,6.32,4
13821,3.24,2.96,-8.53,5.84,2.37,6.38,4
13845,3.37,2.96,-8.58,6.09,1.64,6.13,4
13871,3.46,3,-8.69,4.56,2.31,5.22,4
13895,3.34,2.93,-8.71,2.49,2.68,3.57,4
13920,3.38,2.94,-8.62,1.82,2.98,3.69,4
13945,3.5,2.95,-8.68,1.82,0.24,3.63,4
13969,3.63,2.94,-8.58,1.33,-0.43,2.11,4
13994,3.42,2.94,-8.38,1.69,-2.99,-0.45,4
14018,3.32,2.99,-8.23,2.18,-1.28,-1.43,4
14043,3.29,3.05,-8.23,4.26,-0.98,-1.37,4
14067,3.25,2.88,-8.39,6.82,-4.39,-1.67,4
14092,3.08,2.85,-8.47,7.79,-5,-1.55,4
14117,3.17,2.8,-8.61,7.06,-3.11,-1.31,4
14142,3.17,2.82,-8.89,4.99,-2.08,-1.12,4
14167,3.21,2.7,-8.86,2.85,0.3,-1.06,4
14191,3.34,2.65,-8.94,2.06,-0.37,-1.25,4
14216,3.27,2.61,-8.99,0.72,-2.26,-0.76,4
14240,3.2,2.6,-8.92,-0.44,-0.25,-0.03,4
14265,3.36,2.56,-8.79,-1.29,0.3,-0.51,4
14290,3.43,2.56,-8.84,-1.48,-1.22,-1.55,4
14314,3.24,2.6,-8.69,-1.84,-1.83,-1.49,4
14339,3.25,2.67,-8.57,-1.78,-2.32,-1.06,4
14363,3.1,2.83,-8.5,-2.63,-1.77,-1.37,4
14389,3.12,2.79,-8.42,-2.02,0.3,-1.31,4
14414,3.14,2.86,-8.38,-1.29,-1.35,-1.73,4
14438,2.97,2.83,-8.43,-0.44,-0.55,-2.04,4
14463,2.93,2.81,-8.44,0.96,-1.41,-1.49,4
14487,2.87,2.73,-8.39,2.24,-2.32,-0.64,4
14512,2.88,2.7,-8.72,1.82,-2.75,0.16,4
14536,2.91,2.71,-8.9,0.54,-0.98,1.13,4
14561,2.95,2.65,-8.87,-1.84,-0.13,2.29,4
14586,3.04,2.63,-8.77,-3.12,1.64,2.9,4
14610,3.14,2.73,-8.69,-2.7,-0.98,2.9,4
14635,3.12,2.75,-8.7,-3.37,-3.42,3.08,4
14660,3.04,2.7,-8.67,-4.65,1.03,3.14,4
14685,3.03,2.73,-8.44,-4.28,1.34,2.9,4
14709,3.08,2.75,-8.46,-2.27,-1.59,3.08,4
14734,3.14,2.82,-8.62,-1.11,-1.77,3.57,4
14759,3.07,2.85,-8.54,-1.6,-2.38,3.82,4
14783,3.32,2.86,-8.55,-2.27,1.22,3.51,4
14808,3.48,2.89,-8.49,-1.96,1.58,2.05,4
14832,3.35,2.83,-8.62,-2.15,-2.75,0.16,4
14857,3.04,2.84,-8.54,-3.06,-1.53,0.03,4
14882,2.92,2.86,-8.46,-3.12,0.91,2.35,4
14906,3.17,2.82,-8.53,-2.51,1.58,4.06,4
14932,3.34,2.77,-8.5,-2.02,-0.19,3.08,4
14956,3.47,2.88,-8.37,-2.27,-0.07,0.64,4
14981,3.22,2.91,-8.27,-2.15,-0.13,-1.43,4
15005,3.06,3,-8.23,-0.74,4.2,-1.61,4
15030,3.09,3.01,-8.26,2.49,-1.16,-1.12,4
15055,3.1,2.97,-8.36,4.26,-3.78,-0.94,4
15079,3.15,2.95,-8.66,3.46,-0.98,-1.37,4
15104,3.06,2.86,-8.71,1.94,-2.02,-2.22,4
15128,3.01,2.92,-8.76,0.72,-0.49,-1.86,4
15153,2.95,2.87,-8.8,-0.01,-1.53,0.03,4
15177,2.85,2.76,-8.89,-1.17,-3.48,1.8,4
15203,2.96,2.84,-8.77,-4.16,-0.86,2.6,4
15228,3.22,2.88,-8.57,-5.87,3.78,2.29,4
15252,3.31,3.01,-8.33,-5.5,-0.25,1.62,4
15277,3.29,2.97,-8.12,-3.73,-0.68,0.46,4
15301,3.19,2.93,-8.12,-0.74,-2.2,-1.18,4
15326,3.12,2.95,-8.22,1.69,-3.11,-1.79,4
15351,3.08,2.93,-8.37,2.91,-1.53,-1.61,4
15375,3.13,2.91,-8.44,3.04,-2.75,-1.98,4
15400,3.08,2.92,-8.56,1.69,-1.1,-2.77,4
15424,3.02,2.86,-8.63,2,0.18,-2.16,4
15449,2.9,2.88,-8.58,2.24,-1.65,-0.7,4
15474,3.07,2.84,-8.67,1.82,-1.65,-0.39,4
15499,3.14,2.83,-8.8,-0.07,-2.26,-1.43,4
15524,3.01,2.84,-8.77,-2.27,1.52,-2.16,4
15548,2.74,2.97,-8.5,-2.09,0.67,-0.94,4
15573,2.93,2.95,-8.47,-0.44,-1.16,0.64,4
15597,3.18,2.93,-8.49,0.66,0,-0.27,4
15622,3.12,2.9,-8.57,0.54,-0.07,-2.28,4
15646,2.98,2.92,-8.55,0.11,-1.59,-2.95,4
15671,2.99,2.97,-8.54,-0.07,-0.86,-3.14,4
15696,2.89,2.94,-8.61,0.84,0.3,-1.86,4
15720,2.87,2.91,-8.55,1.63,-1.35,-0.7,4
15745,3.01,2.86,-8.75,1.63,-0.68,-0.27,4
15770,2.98,2.85,-8.83,1.27,-2.2,0.22,4
15795,3,2.78,-8.8,-0.5,-2.2,0.22,4
15819,2.99,2.82,-8.66,-2.51,1.58,-0.27,4
15844,2.97,2.91,-8.61,-3,-1.04,-1,4
15869,2.74,3.02,-8.44,-2.33,-0.25,-0.33,4
15893,2.68,2.95,-8.39,-1.66,0.61,1.74,4
15918,3.14,2.95,-8.36,-0.62,2.07,2.05,4
15942,3.22,2.97,-8.47,0.96,0.3,-0.15,4
15967,3.09,2.95,-8.51,1.94,-1.47,-1.49,4
15992,2.84,2.94,-8.5,2,-3.11,-1.43,4
16016,2.73,2.98,-8.55,1.15,0.18,-0.27,4
16042,2.69,2.9,-8.63,1.21,4.14,1.8,4
16066,2.86,2.94,-8.74,2,0.12,3.14,4
16091,3,2.92,-8.81,1.39,-0.19,3.21,4
16115,3.14,2.85,-8.9,0.29,1.4,2.23,4
16140,3.14,2.87,-8.74,-1.23,1.28,1.25,4
16165,3.22,2.95,-8.72,-2.09,1.52,0.1,4
16189,3.24,2.98,-8.63,-1.78,-0.43,-1.55,4
16214,2.99,3.02,-8.67,-1.54,-0.13,-1.73,4
16238,2.94,3.12,-8.67,-2.33,0.73,-0.94,4
16263,3.04,3.1,-8.64,-2.76,1.46,0.1,4
16287,3.12,3,-8.69,-3.24,1.64,0.46,4
16312,3.16,3.02,-8.77,-3.55,2.68,0.28,4
16338,3.09,3,-8.71,-3.98,1.15,-0.51,4
16362,3.11,3.02,-8.68,-5.01,2.25,-0.76,4
16387,3.08,3.07,-8.62,-5.62,1.52,-1.25,4
16411,3.04,3.02,-8.39,-5.5,1.09,-1.86,4
16436,3.13,3.08,-8.29,-4.04,2.25,-2.16,4
16461,3.06,3.08,-8.47,-2.76,-1.53,-2.71,4
16485,2.94,3.08,-8.42,-2.76,-1.28,-2.83,4
16510,2.85,3.05,-8.42,-3.12,2.43,-3.2,4
16534,2.89,3.16,-8.4,-3.06,2.86,-2.34,4
16559,2.97,3.17,-8.5,-3.49,-0.55,-1.67,4
16583,2.99,3.14,-8.37,-3.85,1.09,-1.67,4
16609,3.07,3.16,-8.31,-3.06,2.43,-2.89,4
16634,3.14,3.13,-8.44,-1.96,-0.98,-2.95,4
16658,3.02,3.09,-8.46,-1.66,-2.87,-3.14,4
16683,2.95,3.19,-8.29,-1.96,-2.14,-3.32,4
16707,2.85,3.25,-8.24,-2.02,0.06,-2.1,4
16732,2.78,3.18,-8.25,-0.93,-1.53,-0.64,4
16756,2.82,3.19,-8.29,0.54,-1.16,0.28,4
16781,2.83,3.25,-8.48,1.27,-0.31,1.38,4
16806,2.88,3.13,-8.51,0.54,-0.74,2.17,4
16830,2.83,3.16,-8.44,-0.68,1.4,3.08,4
16855,2.94,3.2,-8.54,-0.99,2.31,3.69,4
16880,2.99,3.26,-8.47,-0.68,-0.07,4.97,4
16905,3.17,3.22,-8.49,-0.74,0.54,4.73,4
16930,3.29,3.21,-8.43,-1.54,1.46,3.08,4
16954,3.2,3.31,-8.4,-1.66,2.13,1.19,4
16979,3.11,3.32,-8.29,0.23,-0.86,0.16,4
17003,2.95,3.34,-8.4,1.51,-2.87,0.58,4
17028,2.99,3.29,-8.4,1.51,-1.1,1.25,4
17052,3.11,3.19,-8.48,1.09,-0.86,0.71,4
17077,3.1,3.23,-8.55,0.48,-0.98,0.03,4
17102,3.04,3.18,-8.52,0.6,-1.35,-0.27,4
17126,2.91,3.13,-8.58,0.66,-3.36,-0.09,4
17152,2.74,3.15,-8.4,-0.2,-0.37,0.4,4
17176,2.89,3.14,-8.38,0.78,2.56,1.5,4
17201,2.91,3.16,-8.38,2.06,-2.87,2.11,4
17225,2.97,3.18,-8.54,1.45,-0.07,2.78,4
17250,3.01,3.15,-8.56,0.84,2.01,2.78,4
17275,3.1,3.13,-8.61,0.66,1.76,2.78,4
17299,3.23,3.11,-8.67,0.66,0.61,2.72,4
17324,3.29,3.21,-8.6,-0.56,-2.08,1.86,4
17348,3.15,3.23,-8.43,-1.9,0.91,0.77,4
17373,3.23,3.3,-8.38,-1.84,1.52,-0.27,4
17397,3.19,3.23,-8.28,-0.5,-0.92,-1.55,4
17422,3.03,3.24,-8.19,1.02,-0.92,-1.67,4
17448,2.89,3.16,-8.28,2.61,-1.22,-1.31,4
17472,3.01,3.17,-8.52,3.34,-2.32,-0.64,4
17497,3.08,3.02,-8.68,2.79,-1.41,-0.94,4
17521,3.02,3.07,-8.61,1.39,-0.61,-1.31,4
17546,2.91,3.06,-8.53,0.41,-0.31,-0.76,4
17571,2.89,3.11,-8.47,-0.2,1.52,-0.03,4
17595,2.94,3.17,-8.44,0.17,2.5,0.52,4
17620,2.85,3.2,-8.52,0.54,0.3,1.07,4
17644,2.99,3.14,-8.5,0.35,0.3,1.56,4
17669,3.02,3.14,-8.53,0.29,0.97,1.8,4
17693,2.95,3.1,-8.45,0.96,-0.43,1.74,4
17718,3.08,3.06,-8.56,1.09,-0.86,1.38,4
17743,3.21,3.1,-8.52,0.48,-1.1,0.22,4
17768,2.97,3.06,-8.42,-0.56,-1.71,-0.88,4
17793,2.78,3.12,-8.33,0.6,1.28,-0.7,4
17817,2.73,3.27,-8.33,4.26,-0.98,1.93,4
17842,2.96,3.18,-8.66,5.84,-2.14,4.73,4
17866,3.35,3.11,-9.06,4.87,-0.07,5.52,4
17891,3.57,3.21,-9.11,3.4,-2.14,5.16,4
17916,3.69,3.16,-9.16,0.48,-0.13,3.82,4
17940,3.78,3.08,-9.09,-4.28,3.23,0.89,4
17965,3.48,3.02,-8.98,-8.31,0.85,-2.47,4
17989,3.11,3.14,-8.72,-11.23,1.03,-5.03,4
18015,2.75,3.26,-8.54,-11.72,1.28,-4.23,4
18040,2.57,3.35,-8.31,-10.87,0.79,-1.67,4
18064,2.65,3.34,-8.19,-9.4,1.76,0.34,4
18089,2.87,3.31,-8.22,-7.76,3.84,1.62,4
18113,3.23,3.28,-8.44,-4.65,2.62,2.23,4
18138,3.28,3.17,-8.54,-4.77,-2.93,0.52,4
18162,3.2,3.15,-8.55,-6.84,2.07,-1.79,4
18187,3.03,3.25,-8.3,-7.88,1.89,-2.53,4
18212,2.91,3.27,-8.16,-8,-0.61,-1.86,4
18236,2.97,3.24,-7.83,-7.39,-0.98,-1.67,4
18262,2.92,3.25,-7.47,-5.56,1.15,-3.38,4
18286,2.72,3.39,-7.5,-1.11,4.02,-4.9,4
18311,2.49,3.36,-7.58,4.93,-1.71,-3.5,4
18335,2.44,3.24,-7.85,8.65,-6.53,-0.94,4
18360,2.45,3.16,-8.1,9.19,-1.22,0.71,4
18385,2.53,3.1,-8.33,9.07,1.22,1.86,4
18409,2.63,3.11,-8.48,9.74,-0.49,3.27,4
18434,2.77,3.13,-8.66,10.23,-3.36,5.16,4
18458,2.79,3.17,-8.97,8.83,-1.04,6.5,4
18483,3.05,3.21,-9.02,5.84,0.61,7.41,4
18509,3.14,3.17,-8.97,3.04,-1.59,7.35,4
18533,3.11,3.28,-8.83,-0.44,-0.37,6.8,4
18558,3.07,3.26,-8.66,-2.09,5.18,7.23,4
18582,3.25,3.41,-8.72,-1.05,3.35,8.69,4
18607,3.5,3.39,-8.79,-0.87,2.07,9.06,4
18631,3.69,3.34,-8.85,-2.51,2.68,7.05,4
18656,3.76,3.37,-8.91,-4.4,2.68,4.24,4
18681,3.67,3.23,-8.6,-6.17,0.06,0.89,4
18705,3.2,3.31,-8.41,-7.39,0.42,-1.92,4
18730,2.77,3.27,-8.24,-6.29,3.04,-1.31,4
18754,2.74,3.29,-8.19,-4.65,0.3,1.62,4
18780,3.05,3.28,-8.36,-3.91,2.92,4.43,4
18804,3.49,3.24,-8.34,-4.46,3.23,3.94,4
18829,3.59,3.12,-8.25,-4.22,3.96,0.77,4
18854,3.56,3.22,-8.26,-2.27,1.03,-1.73,4
18878,3.23,3.19,-8.28,-1.41,-3.54,-2.22,4
18903,3.07,3.17,-8.22,-1.66,-1.59,-1.25,4
18927,2.97,3.24,-7.99,-2.7,-0.55,-0.45,4
18952,3.14,3.16,-7.89,-1.54,1.82,-1,4
18976,3.17,3.12,-7.81,1.45,-1.96,-1.92,4
19001,2.81,3.2,-7.93,4.32,-4.21,-1.55,4
19027,2.68,3.19,-8.16,5.48,-2.26,0.16,4
19051,2.68,3.16,-8.18,5.05,-0.92,2.41,4
19076,2.84,3.13,-8.35,4.93,1.7,4.12,4
19100,3.07,3.04,-8.51,5.35,-0.92,4.79,4
19125,2.98,3,-8.56,4.62,-5.8,2.53,4
19150,2.63,3.17,-8.67,2.85,-0.74,2.96,4
19174,2.67,3.28,-8.66,2.12,2.92,7.35,4
19199,3.15,3.3,-8.79,2.43,1.52,11.01,4
19223,3.78,3.22,-8.94,1.69,0.48,10.64,4
19248,4.05,3.2,-8.92,-0.26,-1.53,5.83,4
19272,3.88,3.29,-8.86,-3.06,-0.55,1.93,4
19298,3.58,3.32,-8.6,-5.56,0.73,0.71,4
19323,3.4,3.37,-8.27,-6.41,2.07,1.32,4
19347,3.25,3.35,-8.03,-5.13,2.01,1.62,4
19372,3.3,3.3,-8,-2.39,-0.68,2.17,4
19396,3.37,3.33,-8.1,-0.32,-2.44,1.8,4
19421,3.3,3.27,-8.41,-0.13,-2.44,1.25,4
19445,3.32,3.25,-8.42,-2.51,0.61,1.56,4
19470,3.58,3.13,-8.39,-4.83,4.08,1.19,4
19495,3.72,3.06,-8.22,-4.95,2.68,-1.25,4
19519,3.43,3.11,-7.97,-2.94,1.95,-4.72,4
19545,3.01,3.15,-7.95,0.66,-0.61,-5.88,4
19569,2.69,3.16,-7.98,3.65,-2.08,-4.42,4
19594,2.6,3.06,-8.17,5.29,-0.98,-1.49,4
19619,2.94,3.05,-8.39,5.66,-1.59,-0.03,4
19643,3.15,2.95,-8.61,4.01,0.42,0.03,4
19668,3.3,2.93,-8.6,3.59,-1.28,-0.82,4
19692,2.99,2.84,-8.49,3.4,-8.85,-3.75,4
19717,2.65,3.04,-8.47,3.4,-2.32,-3.26,4
19741,2.35,3.14,-8.55,3.46,-0.31,1.62,4
19766,2.59,3.2,-8.76,4.87,0.24,7.84,4
19791,3.26,3.16,-9.07,4.5,-2.44,11.25,4
19816,3.71,3.24,-9.13,-0.01,-3.36,9.36,4
19841,3.74,3.24,-8.94,-5.68,-0.07,5.28,4
19865,3.59,3.25,-8.71,-9.4,2.68,2.11,4
19890,3.39,3.43,-8.26,-9.34,0.73,1.07,4
19914,3.27,3.44,-8,-6.6,-0.55,1.01,4
19939,3.12,3.34,-7.85,-3.91,0.61,1.01,4
19964,3.18,3.34,-7.94,-1.48,1.03,1.32,4
19988,3.37,3.24,-8.13,0.72,-1.71,0.77,4
20013,3.31,3.12,-8.21,1.88,-1.47,-0.51,4
20037,3.17,3.04,-8.35,2,-2.02,-1.73,4
20062,3.13,2.99,-8.49,2.06,-1.59,-1.49,4
20088,3.13,2.94,-8.62,1.09,-2.57,-1.61,4
20112,2.9,2.95,-8.38,0.41,-2.08,-1.31,4
20137,2.96,3.03,-8.39,1.33,-0.61,-0.09,4
20161,3.29,2.87,-8.55,2.18,-1.53,-0.33,4
20186,3.23,2.91,-8.5,2.61,-3.72,-1.49,4
20210,2.81,3,-8.48,1.69,-2.87,-1.06,4
20235,2.93,3.06,-8.2,2.24,3.41,1.99,4
20260,3.39,3.18,-8.19,4.99,0.06,3.02,4
20284,3.12,3.31,-7.95,10.6,-16.89,1.86,4
20309,3.27,3.07,-8.09,14.07,-16.04,1.93,4
20334,2.95,3.33,-8.54,15.96,-12.38,1.5,4
20359,3.47,3.26,-8.8,15.17,-5.43,0.52,4
20383,3.47,3.37,-9.08,15.29,-2.5,-0.7,4
20408,3.91,3.24,-9.59,10.11,-4.58,-5.33,4
20433,3.81,3.03,-9.73,3.34,-13.24,-9.54,4
20457,3.05,2.64,-9.81,-4.83,-33.11,-13.32,4
20483,2.14,2.91,-9.66,-18.67,-9.27,-13.56,4
20507,2.53,2.92,-9.59,-27.45,19.51,-11.86,4
20532,1.91,2.99,-9.29,-34.4,7.25,-8.99,4
20557,2.08,2.98,-8.63,-36.72,16.95,-4.66,4
20581,2.13,2.95,-7.91,-35.32,26.34,-2.22,4
20607,2.54,3.05,-7.34,-29.4,26.58,-0.27,4
20631,2.68,3.27,-6.8,-17.88,5.24,3.08,4
20656,2.16,3.51,-6.53,-3.85,-18.24,7.05,4
20680,2.53,3.27,-6.39,10.78,-15.43,9,4
20705,2.84,3.33,-6.76,23.77,-18.48,8.69,4
20730,2.85,3.24,-7.53,30.54,-20.25,7.72,4
20755,3.64,3.03,-8.38,31.15,-5.13,3.08,4
20780,3.84,3.06,-9.13,28.83,-9.76,-4.48,4
20804,3.56,3.09,-9.83,19.99,-29.52,-12.4,4
20829,4.13,3.33,-10.05,6.45,-0.8,-21.73,4
20853,1.71,3.35,-9.55,2,-72.93,-23.56,4
20878,2.38,3.68,-9.93,-8.85,-20.67,-17.83,4
20904,1.29,3.48,-9.39,-13.85,24.51,-15.21,4
20928,1.8,3.46,-8.89,-17.94,1.58,-12.1,4
20953,2.12,3.7,-8.56,-16.84,19.51,-9.23,4
20977,1.84,3.77,-8.31,-12.94,12.74,-5.88,4
21002,2.07,3.7,-7.86,-5.93,-3.36,-3.5,4
21028,1.81,3.5,-7.74,4.93,-1.89,-2.16,4
21052,1.76,3.48,-7.72,14.01,-7.93,0.4,4
21077,1.48,3.74,-8.38,18.65,-23.6,5.22,4
21101,0.82,3.17,-9.11,18.4,-42.38,14.36,4
21126,1.31,2.74,-9.38,12.24,-19.7,21.25,4
21150,2.19,2.52,-9.88,2.67,5.79,19.61,4
21176,3.64,2.45,-9.77,-4.77,13.04,8.08,4
21201,4.22,2.83,-9.27,-10.44,15.12,-10.88,4
21225,2.82,3.48,-8.93,-10.07,-1.53,-24.29,4
21250,3.71,3.76,-8.59,-8.85,-9.09,-27.28,4
21274,1.27,3.75,-8.58,-7.76,-14.39,-26.49,4
21300,1.44,3.69,-8.25,-7.09,-4.82,-22.34,4
21325,2.26,3.62,-8.13,-3.06,8.72,-19.54,4
21349,1.35,3.33,-8.17,2.79,-16.16,-19.36,4
21374,0.13,3.3,-7.94,9.74,-31.53,-13.75,4
21398,0.23,3.55,-8.94,14.13,-15,-3.2,4
21423,-0.68,3.36,-8.85,11.02,-26.16,11.92,4
21448,-0.11,3.12,-9.15,6.82,-13.42,25.34,4
21473,1.21,2.71,-9.34,2.43,10.24,28.51,4
21498,1.7,2.94,-9.08,2,8.59,24.42,4
21522,1.67,3.1,-9.13,2.61,8.72,21.01,4
21547,1.96,3.32,-9.1,3.34,15.12,19.18,4
21572,2.47,3.29,-9.17,1.76,23.35,14.91,4
21597,1.78,3.24,-9.04,3.04,-5.37,13.33,4
21621,1.87,3.31,-9.23,3.22,-21.65,14.36,4
21646,1.46,3.25,-9.35,0.35,-9.46,15.22,4
21671,1.98,2.92,-9.26,-4.4,3.17,12.96,4
21695,2.7,3.06,-9.02,-5.68,7.92,7.11,4
21720,2.49,3.14,-8.72,-4.22,-4.7,1.93,4
21745,2.27,3.39,-8.63,-1.6,-2.14,-1.31,4
21770,2.11,3.47,-8.56,2.12,-7.87,-3.38,4
21795,1.67,3.49,-8.6,5.11,-12.2,-3.87,4
21819,2.19,3.18,-8.89,4.13,8.23,-5.94,4
21844,2.44,3.2,-8.82,4.68,10.85,-11.43,4
21868,2.16,3.1,-8.84,7,-3.18,-14.11,4
21893,1.73,3.11,-8.81,8.89,-10.25,-13.87,4
21917,1.09,2.93,-8.72,12.73,-26.1,-10.51,4
21943,0.7,3.02,-8.86,15.29,-40.67,-5.33,4
21968,0.76,2.8,-8.93,14.26,-33.3,-1.86,4
21992,1.43,2.8,-9.41,10.84,-19.15,-2.04,4
22017,1.66,2.7,-9.38,6.69,-32.02,-5.76,4
22041,0,3.15,-9.53,7.91,-59.45,-8.2,4
22067,0.39,2.58,-9.5,4.74,-17.5,-3.62,4
22091,-0.02,2.8,-9.13,4.38,1.52,-0.27,4
22116,0.58,2.96,-9.41,7.61,-6.59,2.84,4
22141,0.66,2.74,-9.47,8.65,-18.3,2.72,4
22165,0.61,2.71,-9.55,5.48,-9.27,2.11,4
22190,0.74,2.69,-9.5,1.51,2.43,1.13,4
22214,0.96,2.74,-9.46,1.27,0.36,-0.76,4
22239,-0.58,3.2,-9.22,4.32,-15.25,5.58,4
22264,-0.12,2.71,-9.55,2.37,-11.83,13.45,4
22289,1.15,2.61,-9.63,-0.5,17.56,11.07,4
22314,1.98,2.73,-9.67,-3.37,-0.92,0.64,4
22338,1.48,2.67,-9.76,-5.44,-9.33,-8.93,4
22363,0.68,2.95,-9.38,-6.96,-5.37,-11.18,4
22387,0.21,2.87,-8.81,-6.17,-7.08,-9.23,4
22412,0.37,2.91,-9.08,-3.31,5.24,-7.4,4
22437,0.32,2.74,-8.91,-1.11,-3.97,-7.4,4
22461,0.17,2.63,-8.85,1.57,-4.03,-6.12,4
22487,0.15,2.72,-9.15,3.95,2.74,-4.23,4
22511,-2.06,2.54,-9.11,10.78,-17.93,0.03,4
22536,-1.6,2.79,-9.24,6.15,-18.42,17.29,4
22560,0.4,2.25,-9.73,2.98,15.36,21.19,4
22585,1.56,2.32,-9.86,-1.17,10.48,12.23,4
22610,1.5,2.62,-9.78,-3.91,-7.14,1.25,4
22634,1.03,2.91,-9.52,-5.13,4.08,-6,4
22660,0.9,3.33,-9.36,-6.84,3.84,-8.2,4
22684,0.18,3.11,-9.12,-4.4,-4.7,-6.79,4
22709,0.2,3.02,-8.94,-0.5,-1.28,-4.05,4
22734,0.48,2.83,-9.13,2.24,-8.42,-3.5,4
22758,0.27,2.8,-9.16,3.65,-9.03,-3.93,4
22783,0.18,2.87,-9.13,4.32,-3.6,-2.89,4
22807,0.2,2.73,-9.34,4.13,-0.55,-1.37,4
22832,0.15,2.76,-9.48,2.91,4.08,0.34,4
22856,0.15,2.72,-9.53,1.45,4.87,0.95,4
22881,-0.76,2.44,-9.61,0.41,-8.11,2.66,4
22906,0.15,2.4,-9.59,-2.82,2.8,6.01,4
22930,0.41,2.71,-9.41,-3.79,8.84,4.91,4
22956,0.98,2.66,-9.38,-3.31,4.32,1.07,4
22980,0.88,2.8,-9.31,-2.33,1.03,-4.29,4
23005,0.32,2.92,-9.09,-1.05,-5.31,-6.06,4
23029,0.23,2.92,-9.03,2.06,-2.5,-4.36,4
23054,0.04,2.83,-8.99,4.19,-4.33,-2.1,4
23079,0.26,2.7,-9.39,5.23,-3.72,-0.88,4
23103,0.3,2.69,-9.59,4.44,0.12,0.16,4
23128,0.34,2.64,-9.47,1.82,-2.44,0.1,4
23152,0.11,2.35,-9.51,0.17,-2.99,-0.33,4
23177,-0.33,2.74,-9.38,-0.56,0.12,4.12,4
23202,0.04,2.73,-9.37,-0.74,0.97,8.14,4
23227,0.54,2.73,-9.33,-2.09,6.34,7.53,4
23252,0.81,2.76,-9.34,-1.54,3.84,4.18,4
23276,0.87,2.82,-9.28,0.17,-0.19,-0.51,4
23301,0.67,2.82,-9.23,1.09,-3.42,-3.99,4
23325,0.36,2.93,-9.42,1.69,-2.93,-3.75,4
23350,0.32,2.81,-9.41,1.57,-3.85,-2.83,4
23375,0.38,2.7,-9.49,0.96,-1.96,-2.04,4
23399,0.28,2.61,-9.44,-0.2,-2.44,-1.92,4
23424,0.32,2.59,-9.5,-1.41,0.79,-1.12,4
23448,0.32,2.66,-9.44,-1.54,0.97,-0.51,4
23473,0.19,2.66,-9.24,-1.35,-2.75,0.1,4
23498,0.23,2.67,-9.26,-1.66,0.73,0.83,4
23523,0.39,2.71,-9.16,-2.09,1.03,0.83,4
23548,0.38,2.73,-9.1,-0.99,0.18,-0.03,4
23572,0.23,2.78,-9.11,1.45,-0.25,-0.21,4
23597,0.19,2.72,-9.18,3.71,-3.78,0.16,4
23621,0.21,2.69,-9.29,4.13,-3.78,1.32,4
23646,0.33,2.67,-9.28,4.13,-0.8,1.01,4
23671,0.54,2.54,-9.43,3.95,-2.44,-0.76,4
23695,0.26,2.6,-9.4,3.77,-2.5,-1.31,4
23720,0.22,2.69,-9.41,3.52,-2.08,-1.06,4
23744,0.19,2.66,-9.41,3.28,0,-0.76,4
23769,0.1,2.66,-9.29,3.83,-1.89,-0.09,4
23794,-0.3,2.64,-9.59,5.23,-5.92,2.66,4
23819,-0.2,2.49,-9.45,4.68,-7.5,5.4,4
23844,0.14,2.52,-9.72,2.43,-0.31,6.8,4
23868,0.28,2.5,-9.65,-0.01,0.73,6.32,4
23893,0.42,2.65,-9.69,-1.29,1.76,6.01,4
23917,0.5,2.72,-9.48,-2.51,-2.75,4.97,4
23942,0.41,2.71,-9.3,-2.27,-0.74,3.69,4
23966,0.4,2.75,-9.09,0.29,-2.75,2.78,4
23991,0.45,2.84,-9.16,4.32,-7.99,1.56,4
24016,0.33,2.64,-9.34,4.26,-8.66,0.1,4
24040,0.26,2.44,-9.55,2.43,-3.85,-0.33,4
24065,0.19,2.32,-9.65,0.96,-5.43,-0.7,4
24090,-0.11,2.45,-9.31,1.39,-15,-0.76,4
24115,-0.42,2.41,-9.2,3.52,-8.72,1.13,4
24139,-0.15,2.41,-9.1,6.76,-16.16,2.84,4
24164,-0.51,2.48,-9.4,7.43,-21.04,4.18,4
24189,-0.15,2.28,-9.7,6.02,-0.13,4.24,4
24213,-0.03,2.41,-9.65,4.93,-7.75,2.9,4
24238,0.08,2.18,-9.71,3.46,-19.03,0.83,4
24262,-0.25,2.46,-9.81,2.3,-12.08,0.03,4
24287,-0.44,2.42,-9.8,0.6,-8.97,1.01,4
24313,-0.51,2.49,-9.78,-1.41,-7.63,2.35,4
24337,-0.5,2.53,-9.76,-3.55,-1.59,3.45,4
24362,-0.18,2.34,-9.6,-4.4,-1.41,4.79,4
24386,-0.41,2.53,-9.68,-5.93,-12.63,4.79,4
24411,-0.31,2.45,-9.55,-6.78,-0.31,4.67,4
24435,-0.1,2.49,-9.65,-7.09,-7.57,2.72,4
24460,-0.38,2.64,-9.72,-9.4,-7.02,0.28,4
24485,-0.24,2.7,-9.49,-10.2,6.82,-1.43,4
24509,-0.04,2.6,-9.44,-8.73,-9.88,-3.2,4
24535,-0.12,2.71,-9.41,-8.43,-14.15,-5.03,4
24559,-0.56,2.68,-9.43,-8.91,-14.82,-6.61,4
24584,-0.84,2.76,-9.28,-9.89,-2.32,-6.86,4
24608,-0.69,2.7,-9.12,-8,0,-5.7,4
24633,-0.97,2.63,-9.04,-4.22,-22.69,-3.99,4
24658,-1.2,2.79,-9.21,-3.18,-17.63,-1.61,4
24682,-0.96,2.78,-9.11,-1.41,-11.22,0.52,4
24707,-1.12,2.85,-9.04,0.48,-16.41,1.93,4
24732,-1.03,2.55,-9.03,3.22,-17.08,3.21,4
24757,-1.25,2.89,-9.14,4.5,-14.27,3.75,4
24782,-0.94,2.92,-9.14,6.21,-7.5,3.51,4
24806,-0.78,2.86,-9.06,7.98,-11.89,1.93,4
24831,-0.81,2.71,-9.36,8.77,-12.2,-1.49,4
24855,-0.89,2.7,-9.18,8.34,-3.85,-5.09,4
24880,-0.58,2.68,-9.44,7.12,3.47,-8.44,4
24905,-0.93,2.67,-9.36,5.9,0.79,-11.12,4
24930,-0.84,2.73,-9.32,5.9,-2.38,-12.65,4
24955,-1.04,2.61,-9.31,7.61,-1.35,-12.95,4
24979,-1.13,2.55,-9.38,8.52,-6.35,-13.14,4
25004,-1.43,2.45,-9.61,8.1,-8.3,-12.59,4
25028,-1.64,2.43,-9.61,5.84,-3.97,-10.64,4
25053,-1.66,2.29,-9.56,4.5,2.92,-8.87,4
25079,-1.74,2.26,-9.44,3.95,0.18,-6.98,4
25103,-1.75,2.32,-9.55,3.65,1.34,-4.66,4
25128,-1.61,2.3,-9.46,3.95,-0.43,-2.65,4
25152,-1.57,2.25,-9.59,3.65,-1.65,-1.86,4
25177,-1.67,2.28,-9.7,3.52,-0.49,-1.18,4
25201,-1.45,2.28,-9.52,2.85,-0.19,-0.15,4
25226,-1.56,2.35,-9.6,1.57,0.36,0.4,4
25251,-1.42,2.41,-9.65,0.96,6.95,1.56,4
25275,-1.28,2.34,-9.6,1.21,2.19,1.5,4
25300,-1.08,2.32,-9.7,0.96,-2.02,0.58,4
25325,-1.2,2.41,-9.62,-0.13,0,-0.88,4
25350,-1.11,2.38,-9.67,-0.87,0.24,-1.67,4
25374,-1.26,2.36,-9.59,-1.48,-1.35,-2.65,4
25399,-1.24,2.3,-9.52,-1.72,-0.31,-2.89,4
25424,-1.43,2.27,-9.37,-1.41,0.18,-3.26,4
25448,-1.39,2.27,-9.38,-0.87,-0.43,-2.89,4
25473,-1.46,2.26,-9.31,-0.26,2.68,-1.92,4
25497,-1.29,2.13,-9.37,1.33,2.01,-1.12,4
25522,-1.49,2.19,-9.3,2.3,-1.41,-1.06,4
25546,-1.41,2.16,-9.5,2.73,0.85,-0.21,4
25572,-1.4,2.19,-9.34,3.04,1.34,0.52,4
25597,-1.39,2.23,-9.51,3.16,1.22,1.44,4
25621,-1.28,2.26,-9.56,4.01,6.34,2.11,4
25646,-1.15,2.11,-9.7,3.4,-1.22,0.95,4
25670,-1.21,2.27,-9.64,1.51,-4.33,-1,4
25695,-1.3,2.39,-9.58,-0.38,8.11,-0.03,4
25720,-1.13,2.35,-9.61,0.35,6.76,0.64,4
25744,-1.02,2.45,-9.87,2.43,3.47,0.4,4
25769,-0.83,2.28,-9.94,1.88,1.46,-1.79,4
25793,-1.03,2.34,-9.91,-1.29,-0.92,-3.87,4
25818,-1.2,2.41,-9.59,-5.26,1.34,-4.42,4
25843,-1.4,2.43,-9.37,-6.54,3.04,-4.17,4
25868,-1.47,2.43,-9.08,-4.34,4.75,-2.83,4
25893,-1.38,2.4,-9.21,-0.62,-1.59,-1.86,4
25917,-1.24,2.33,-9.36,0.54,-1.96,-1.98,4
25942,-1.28,2.16,-9.57,0.84,2.37,-3.26,4
25966,-1.24,2.12,-9.6,0.84,-2.08,-4.66,4
25991,-1.47,2.21,-9.54,0.6,-3.6,-5.15,4
26015,-1.44,2.14,-9.51,-0.2,-4.21,-3.87,4
26040,-1.57,2.09,-9.45,-1.66,-3.36,-3.26,4
26066,-1.47,2.06,-9.22,-1.96,-2.32,-3.44,4
26090,-1.57,2.09,-9.03,-0.81,-3.36,-2.95,4
26115,-1.55,2.07,-9.05,1.76,-2.75,-1.67,4
26139,-1.67,2.1,-9.09,4.44,-4.88,-0.21,4
26164,-1.54,2.16,-9.22,6.57,-2.2,1.13,4
26189,-1.5,2.22,-9.59,9.44,1.52,3.27,4
26213,-1.41,2.1,-9.89,9.44,-9.82,4,4
26238,-1.65,2.24,-9.94,4.13,-8.85,6.01,4
26262,-1.42,2.36,-9.8,-1.23,12.43,8.39,4
26287,-1.32,2.49,-9.7,-1.29,16.95,9.55,4
26312,-1.05,2.53,-9.77,1.69,5.85,9.61,4
26337,-0.91,2.61,-10.11,2,3.65,9.12,4
26362,-0.58,2.53,-10.39,-1.05,6.09,7.35,4
26386,-0.57,2.52,-10.35,-5.38,5.73,3.88,4
26411,-0.33,2.3,-10.13,-9.59,4.69,-0.94,4
26435,-0.67,2.32,-9.61,-12.82,0.24,-6.18,4
26460,-1.17,2.34,-9.05,-13.79,-0.68,-8.81,4
26485,-1.54,2.36,-8.93,-10.93,3.04,-8.32,4
26510,-1.56,2.37,-8.86,-6.78,-0.74,-6.79,4
26535,-1.54,2.37,-8.92,-2.94,-1.47,-4.72,4
26559,-1.57,2.3,-9,0.11,-1.1,-3.44,4
26584,-1.25,2.23,-9.21,2.55,-1.47,-4.05,4
26608,-1.32,2.18,-9.35,3.65,-4.64,-4.84,4
26633,-1.49,2.11,-9.42,2.06,-6.77,-4.9,4
26658,-1.75,2.13,-9.38,0.66,-1.96,-3.75,4
26682,-1.75,2.09,-9.22,0.35,-1.16,-2.04,4
26708,-1.74,2.1,-9.31,2.79,1.4,0.4,4
26732,-1.59,2.09,-9.43,5.35,-3.66,1.93,4
26757,-1.45,2.11,-9.55,5.78,-4.27,2.72,4
26781,-1.27,2.14,-9.62,4.93,1.46,2.53,4
26806,-1.07,2.13,-9.69,5.29,0.24,1.5,4
26831,-1.33,2.24,-9.7,3.04,-9.94,-0.76,4
26855,-1.45,2.42,-9.49,0.23,5.06,1.07,4
26880,-1.46,2.45,-9.34,0.6,7.98,3.08,4
26904,-1.26,2.39,-9.34,2.98,4.93,4.24,4
26929,-1.12,2.32,-9.6,4.8,1.34,3.02,4
26953,-1.33,2.45,-9.67,3.65,0.48,2.53,4
26979,-1.49,2.53,-9.75,2.24,2.25,4.67,4
27004,-1.42,2.4,-9.74,1.15,5.36,7.29,4
27028,-1.1,2.26,-9.59,1.02,7.62,7.47,4
27053,-0.88,2.26,-9.79,1.45,3.96,5.28,4
27077,-1.14,2.33,-9.83,0.84,-4.7,3.75,4
27102,-1.3,2.3,-9.79,-0.93,-0.92,4.36,4
27127,-1.15,2.34,-9.69,-2.51,1.52,5.03,4
27151,-1.08,2.25,-9.52,-3.43,1.89,5.64,4
27176,-0.9,2.15,-9.23,-3.73,2.19,4.43,4
27200,-0.73,2.02,-9.18,-4.1,-0.61,1.99,4
27225,-0.89,2.07,-9,-3.67,-1.96,-1.37,4
27250,-1.18,2.16,-8.73,-0.74,-0.37,-3.81,4
27275,-1.4,2.27,-8.78,5.78,-2.99,-3.87,4
27300,-1.28,2.19,-9.25,11.88,-6.28,-2.16,4
27324,-1.38,2.21,-9.73,12.3,-7.26,-0.64,4
27349,-1.43,2.2,-9.97,8.71,-0.68,-0.09,4
27373,-1.01,2.21,-10.15,7.12,5.12,0.46,4
27398,-0.95,1.91,-10.2,3.77,-7.32,-2.47,4
27422,-1.41,2.08,-9.96,-1.11,-3.6,-3.26,4
27448,-1.54,2.15,-9.66,-2.94,6.4,-1.25,4
27473,-1.42,2.19,-9.6,-1.54,5.24,0.58,4
27497,-1.34,2.19,-9.63,0.54,2.43,1.44,4
27522,-1.39,2.02,-9.65,1.45,0.12,2.23,4
27546,-1.29,1.86,-9.8,-0.87,-0.55,3.57,4
27571,-1.31,1.92,-9.71,-4.95,4.2,3.82,4
27595,-1.46,1.93,-9.33,-6.66,5.54,4.24,4
27620,-1.47,2.02,-9.21,-3.55,0.06,5.34,4
27645,-1.44,2.09,-9.35,-0.44,-2.2,6.5,4
27669,-1.33,2.11,-9.42,1.33,0.48,7.11,4
27695,-1.14,2.1,-9.67,2.06,-2.08,7.17,4
27719,-0.85,2.15,-9.87,1.02,-2.38,7.23,4
27744,-0.79,2.11,-9.88,-1.29,-1.96,5.58,4
27769,-0.67,2.12,-9.62,-3.55,-2.2,2.72,4
27793,-0.72,2.11,-9.3,-3.98,-2.63,0.28,4
27818,-0.82,2.31,-9.09,-2.63,-2.99,-1.06,4
27842,-1,2.32,-8.84,-0.81,-1.35,-1.55,4
27867,-1.09,2.35,-8.77,2.12,-0.43,-2.04,4
27891,-1.05,2.39,-9.03,5.9,1.7,-1.61,4
27916,-1.04,2.28,-9.42,8.77,0.42,-0.82,4
27941,-1.1,2.17,-9.85,8.22,-0.61,-0.88,4
27966,-1.09,2.24,-10.11,5.23,4.45,-0.51,4
27991,-0.98,2.23,-10.04,1.27,5.79,-0.64,4
28015,-1.06,2.09,-9.85,-2.27,3.53,-2.71,4
28040,-1.21,2.3,-9.67,-3.55,5.67,-4.05,4
28064,-1.22,2.14,-9.63,-1.54,5.42,-4.17,4
28089,-1.21,2.06,-9.59,-0.68,1.22,-4.6,4
28114,-1.35,1.97,-9.55,-0.01,5,-5.51,4
28138,-1.27,1.94,-9.73,1.02,-0.37,-6.31,4
28163,-1.45,2,-9.83,-0.13,-3.72,-5.82,4
28188,-1.49,1.95,-9.92,-1.66,1.76,-4.17,4
28213,-1.49,1.95,-9.7,-3.06,-0.37,-2.04,4
28238,-1.29,1.98,-9.8,-4.52,2.13,0.22,4
28262,-1.33,2.03,-9.6,-5.62,1.82,2.47,4
28287,-1.19,2.01,-9.47,-6.41,1.46,3.88,4
28311,-1.07,2,-9.17,-6.23,3.96,3.82,4
28336,-0.8,2.11,-8.96,-4.77,4.75,3.63,4
28360,-0.89,2.21,-8.91,-2.27,3.9,2.9,4
28385,-0.75,2.27,-8.92,0.54,1.89,1.93,4
28410,-0.72,2.27,-8.89,2.73,1.09,0.4,4
28434,-0.78,2.32,-8.77,4.68,0,-2.04,4
28460,-0.82,2.25,-8.93,7.73,0.91,-4.17,4
28484,-1.3,2.56,-9.29,10.48,-0.61,-5.82,4
28509,-0.96,2.39,-9.44,11.39,-1.16,-5.7,4
28533,-0.97,2.25,-9.66,11.09,-2.93,-6.73,4
28558,-1,2.02,-9.7,10.78,0.79,-8.2,4
28583,-0.96,1.86,-9.84,10.54,-2.69,-9.9,4
28607,-1.25,1.76,-9.81,10.54,-2.69,-10.27,4
28633,-1.53,1.83,-9.92,11.45,0.06,-8.56,4
28657,-1.75,1.83,-9.98,11.57,-1.53,-5.03,4
28682,-1.76,1.84,-10.2,8.52,2.68,-0.76,4
28707,-1.68,1.88,-10.32,5.41,10.85,3.82,4
28731,-1.32,1.75,-10.36,3.04,12.68,5.77,4
28756,-0.52,1.74,-10.59,0.6,12.62,3.82,4
28781,-0.57,1.79,-10.59,-3.06,1.95,-0.76,4
28806,-0.94,1.85,-10.41,-6.11,-5.13,-3.38,4
28830,-1.26,1.88,-10.07,-7.88,-6.71,-2.28,4
28855,-1.28,1.85,-9.71,-8.73,-5.92,1.13,4
28880,-1.14,1.64,-9.54,-9.04,-2.08,2.96,4
28904,-1.08,1.72,-9.46,-7.94,-1.16,3.57,4
28929,-1.07,1.77,-9.38,-6.66,-4.94,5.16,4
28953,-1.09,1.85,-9.36,-7.57,-1.89,7.41,4
28979,-0.99,1.79,-9.16,-7.94,4.2,8.88,4
29003,-0.81,1.85,-9.12,-7.21,5.73,8.45,4
29028,-0.79,1.92,-9,-5.5,3.41,6.62,4
29053,-0.84,1.98,-9.08,-2.51,1.82,5.34,4
29077,-0.89,2.03,-9.2,-0.13,0.85,4.36,4
29102,-0.72,1.99,-9.11,1.33,2.43,2.78,4
29126,-0.56,1.84,-9.25,3.1,3.53,0.1,4
29151,-0.79,1.76,-9.26,4.68,-5.86,-4.48,4
29176,-1.28,1.88,-9.03,5.23,-6.22,-6.61,4
29200,-1.61,1.94,-9.23,7.3,0.42,-3.87,4
29225,-1.54,1.98,-9.55,10.11,0.79,0.46,4
29250,-1.38,1.84,-9.86,10.84,-2.5,3.33,4
29275,-1.04,1.79,-10.15,9.32,2.43,4.79,4
29299,-0.8,1.79,-10.16,5.54,1.95,4.24,4
29324,-0.78,1.79,-10.11,1.82,3.41,3.57,4
29349,-0.89,1.96,-9.81,-1.35,3.78,2.9,4
29373,-0.99,2.08,-9.49,-2.27,7.37,4.18,4
29398,-0.91,2.04,-9.24,-0.44,10.06,6.07,4
29422,-0.6,1.92,-9.34,1.82,8.78,6.07,4
29448,-0.43,1.9,-9.36,3.4,6.52,3.27,4
29472,-0.53,1.94,-9.46,3.95,2.31,0.64,4
29497,-1,1.98,-9.36,4.01,2.01,0.34,4
29522,-1.12,2.02,-9.48,5.6,4.93,2.66,4
29546,-0.84,2.01,-9.72,7.37,3.04,4.3,4
29571,-0.59,1.87,-10.11,7.49,0.18,4.55,4
29595,-0.48,1.64,-10.33,4.99,-1.47,2.41,4
29620,-0.37,1.63,-10.22,0.96,-2.08,0.03,4
29645,-0.41,1.56,-10.14,-2.63,0.54,-1.98,4
29670,-0.57,1.53,-9.96,-4.04,0.61,-2.77,4
29695,-0.61,1.54,-9.71,-4.04,-1.1,-2.65,4
29719,-0.68,1.5,-9.54,-4.77,0.12,-2.16,4
29744,-0.63,1.54,-9.1,-4.16,0.06,-3.2,4
29768,-0.83,1.76,-8.98,-1.66,-0.37,-3.68,4
29793,-0.97,1.93,-9.08,1.02,0.12,-2.22,4
29818,-0.8,1.86,-9.3,3.83,2.98,-0.15,4
29842,-0.61,1.82,-9.48,6.63,1.22,-0.09,4
29867,-0.44,1.71,-9.78,7.79,-0.86,-2.16,4
29891,-0.48,1.64,-9.84,6.39,-2.57,-4.9,4
29916,-0.88,1.62,-9.92,3.95,-3.72,-5.64,4
29941,-1.16,1.63,-9.94,1.63,0.42,-3.26,4
29966,-1.12,1.61,-9.95,0.41,2.01,-0.33,4
29991,-0.97,1.57,-9.95,-0.26,1.64,1.93,4
30015,-0.87,1.53,-10.01,-0.93,2.8,2.78,4
30040,-0.73,1.52,-9.89,-2.09,-0.13,2.41,4
30064,-0.69,1.61,-9.83,-3.31,-0.49,1.5,4
30089,-0.61,1.68,-9.67,-3.12,1.28,1.44,4
30114,-0.63,1.66,-9.49,-2.21,-1.77,1.32,4
30138,-0.45,1.57,-9.62,-1.66,-1.77,0.22,4
30163,-0.54,1.68,-9.58,-1.66,-1.83,-1.43,4
30188,-0.52,1.63,-9.47,-0.5,-1.22,-2.59,4
30213,-0.65,1.61,-9.51,1.63,-2.69,-3.01,4
30237,-0.71,1.63,-9.78,2.79,-3.91,-2.59,4
30262,-0.66,1.66,-9.95,1.02,-1.77,-1.79,4
30287,-0.7,1.57,-9.92,-3.12,3.47,-1.37,4
30311,-0.52,1.58,-9.49,-5.99,6.09,-2.34,4
30336,-0.68,1.72,-9.05,-4.77,2.19,-4.48,4
30360,-1.07,1.85,-8.88,-3.18,4.26,-3.87,4
30385,-0.9,1.87,-8.81,1.33,12.92,-2.16,4
30409,-0.68,1.92,-8.99,7.61,3.29,-3.14,4
30435,-0.69,1.74,-9.61,11.94,0.48,-5.15,4
30460,-0.76,1.7,-10.24,12.79,0.18,-5.82,4
30484,-0.93,1.72,-10.64,9.44,-5.55,-5.27,4
30509,-0.97,1.66,-10.74,2.98,-0.61,-4.11,4
30533,-0.96,1.62,-10.63,-2.76,2.43,-2.83,4
30558,-0.95,1.68,-10.45,-6.84,-0.86,-1.86,4
30584,-0.95,1.68,-10.15,-9.28,0.24,-1.25,4
30608,-0.95,1.71,-9.84,-10.44,0.3,-1.06,4
30633,-1.02,1.64,-9.59,-9.28,-1.22,-0.7,4
30657,-1.08,1.69,-9.33,-8.12,-3.24,0.22,4
30682,-0.89,1.66,-9.34,-6.29,-2.02,1.5,4
30706,-0.93,1.61,-9.27,-5.01,-3.36,2.23,4
30731,-0.74,1.59,-9.23,-3.98,-0.31,2.35,4
30756,-0.53,1.55,-9.31,-1.48,-1.35,1.01,4
30780,-0.65,1.5,-9.15,-0.44,-5.8,-1,4
30806,-0.95,1.55,-9.1,0.66,-2.87,-1.25,4
30830,-1.1,1.64,-9.12,2.61,-1.47,0.34,4
30855,-1.05,1.68,-9.27,4.5,0,2.9,4
30879,-1,1.75,-9.46,6.51,2.5,4.61,4
30904,-0.8,1.73,-9.73,7.79,-0.92,5.34,4
30929,-0.64,1.62,-9.93,5.66,-0.8,5.28,4
30953,-0.56,1.77,-10.1,2.49,6.09,4.85,4
30978,-0.51,1.85,-10.04,0.84,5.54,4.36,4
31002,-0.47,1.95,-9.99,0.84,4.45,3.39,4
31027,-0.33,1.95,-10.12,1.15,3.04,2.72,4
31053,-0.33,1.95,-10.09,-1.41,0.36,1.56,4
31077,-0.38,1.92,-9.95,-5.07,4.69,0.28,4
31102,-0.45,1.81,-9.62,-6.72,5.48,-1.67,4
31126,-0.68,1.84,-9.44,-5.74,3.17,-2.47,4
31151,-0.84,1.79,-9.37,-3.37,0.67,-1.79,4
31175,-0.9,1.77,-9.33,-2.09,1.28,-0.27,4
31200,-0.77,1.69,-9.49,-0.93,3.78,0.34,4
31225,-0.72,1.64,-9.68,-0.2,1.34,-0.03,4
31249,-0.76,1.6,-9.63,-0.01,-2.63,-0.57,4
31274,-0.69,1.69,-9.62,-0.93,-2.63,-0.94,4
31298,-0.72,1.61,-9.39,-1.84,-2.26,-1.49,4
31324,-0.84,1.59,-9.13,-0.93,-1.41,-2.53,4
31348,-0.85,1.58,-9.11,2.98,-2.2,-3.2,4
31373,-0.87,1.59,-9.29,6.88,-8.24,-2.77,4
31398,-1.1,1.59,-9.44,7.61,-8.17,-0.88,4
31422,-1.03,1.66,-9.46,5.84,-2.26,0.52,4
31447,-0.93,1.57,-9.58,4.99,3.04,1.25,4
31471,-0.76,1.5,-9.68,7,-0.31,0.71,4
31496,-0.96,1.61,-9.78,8.46,-9.21,0.4,4
31520,-1.21,1.79,-9.85,6.51,-5.19,2.23,4
31545,-1.06,1.84,-10.01,4.32,7.31,5.52,4
31571,-0.77,1.8,-10.12,4.8,2.98,7.23,4
31595,-0.43,1.72,-10.43,4.87,0.79,6.99,4
31620,-0.15,1.66,-10.56,2.43,0.24,4.85,4
31644,-0.17,1.6,-10.3,-3,-0.86,1.8,4
31669,-0.29,1.66,-9.85,-6.6,4.08,-0.82,4
31694,-0.59,1.75,-9.43,-6.48,3.9,-1.79,4
31718,-0.74,1.84,-9.28,-3.85,2.8,-0.51,4
31743,-0.89,1.84,-9.22,-1.78,4.32,1.07,4
31767,-0.74,1.74,-9.29,-0.13,5.67,1.86,4
31793,-0.72,1.67,-9.5,0.6,5.67,1.68,4
31817,-0.7,1.69,-9.6,0.96,4.02,1.56,4
31842,-0.71,1.69,-9.76,0.35,2.8,0.95,4
31867,-0.64,1.63,-9.96,0.05,0.06,0.16,4
31891,-0.52,1.52,-9.89,-1.48,-1.77,-0.94,4
31916,-0.49,1.44,-9.76,-3.31,-2.38,-3.07,4
31940,-0.68,1.36,-9.56,-3.73,-3.85,-5.39,4
31965,-0.76,1.41,-9.34,-2.15,-5.92,-6.12,4
31989,-1.02,1.34,-9.28,0.78,-6.16,-6.06,4
32014,-1.22,1.34,-9.23,3.16,-6.83,-4.72,4
32039,-1.31,1.32,-9.36,4.87,-5.07,-1.86,4
32064,-1.27,1.37,-9.48,5.17,-4.09,1.5,4
32089,-1.35,1.37,-9.56,4.13,-0.25,5.89,4
32113,-1,1.42,-9.67,4.07,8.41,9.24,4
32138,-0.56,1.45,-9.78,4.93,0.97,8.69,4
32163,-0.61,1.48,-9.83,3.71,-4.15,7.11,4
32187,-0.64,1.72,-9.82,2,6.22,7.17,4
32212,-0.46,1.87,-9.75,2.3,6.22,8.21,4
32236,-0.08,1.89,-10.08,2.85,4.63,7.6,4
32261,0.17,1.79,-10.1,1.94,7.43,4,4
32285,0.23,1.79,-10.16,0.17,1.22,-1,4
32311,0.04,1.82,-10.02,-2.94,0.42,-4.97,4
32336,-0.18,1.77,-9.66,-5.26,1.89,-7.28,4
32360,-0.51,1.68,-9.3,-5.07,2.43,-8.26,4
32385,-0.86,1.7,-9.14,-1.84,1.09,-7.83,4
32409,-0.92,1.58,-9.44,1.82,-0.86,-5.76,4
32434,-1.01,1.48,-9.68,3.04,-1.28,-3.81,4
32458,-0.96,1.4,-9.88,2.18,0.73,-2.59,4
32483,-0.9,1.3,-10.02,0.48,-0.25,-2.04,4
32508,-0.89,1.28,-10.04,-1.11,-1.65,-1.86,4
32532,-0.94,1.36,-9.99,-2.27,-2.99,-1.25,4
32558,-0.87,1.38,-9.93,-3.31,-3.66,-0.21,4
32582,-0.86,1.51,-9.68,-4.04,-3.42,1.01,4
32607,-0.78,1.5,-9.51,-4.46,-0.37,1.99,4
32632,-0.6,1.53,-9.39,-2.88,2.25,2.23,4
