t_ms,ax,ay,az,gx,gy,gz,label
5,8.7,-1.47,-0.23,14.56,-11.53,21.13,3
29,9.33,-1,-0.66,13.58,-4.76,21.25,3
54,8.9,-0.86,-1.09,9.5,-18.97,16.07,3
79,8.86,-0.87,-1.27,5.05,-6.53,11.19,3
103,9.39,-0.73,-1.01,3.1,12.19,9.97,3
128,10.19,-1.01,-0.94,4.74,2.25,10.77,3
152,10.79,-1.05,-0.7,10.35,-8.97,12.05,3
177,10.97,-1.1,-0.78,16.57,-16.35,8.21,3
201,10.56,-1.09,-1.04,17.49,-20.86,0.03,3
226,10.56,-1.19,-1.29,14.01,-4.27,-9.48,3
251,10.98,-1.07,-1.62,10.05,3.84,-16.61,3
276,9.36,-1.55,-1.32,0.78,4.02,-22.89,3
301,9.01,-1.83,-1.21,-3,8.35,-23.01,3
325,8.26,-1.87,-1.31,-9.16,5.06,-20.57,3
350,8.48,-1.75,-1.06,-12.02,16.82,-13.81,3
375,8.59,-1.62,-0.86,-10.68,14.51,-8.44,3
399,8.27,-1.43,-0.96,-11.84,-7.87,-5.7,3
424,8.19,-1.53,-0.76,-14.04,5.48,-3.75,3
448,8.67,-1.51,-0.36,-12.57,27.92,-2.89,3
473,9.38,-1.22,-0.36,-6.29,28.17,-4.48,3
497,9.32,-1.05,-0.46,-2.63,13.84,-5.27,3
522,9.16,-1.03,-0.48,-2.09,3.11,-3.68,3
547,9.19,-1.28,-0.35,0.35,0.85,-1.98,3
571,9.02,-1.1,-0.36,1.63,-6.04,-1.86,3
596,9.05,-1.12,-0.43,2.24,-0.55,-2.71,3
620,8.92,-0.97,-0.27,2.24,1.64,-3.44,3
645,9.06,-0.93,-0.1,3.34,-2.26,-6,3
669,9.1,-0.95,-0.12,6.51,4.32,-9.17,3
694,8.52,-0.81,-0.35,7.79,-0.07,-10.15,3
719,8.34,-0.74,-0.46,6.45,0.06,-6.67,3
743,8.56,-0.63,-0.42,4.62,9.87,-2.04,3
768,8.69,-0.7,-0.22,4.26,1.46,2.47,3
792,8.76,-0.73,-0.35,4.56,-7.44,6.62,3
817,8.83,-0.58,-0.41,3.22,-1.41,8.94,3
841,9.27,-0.71,-0.31,2.67,9.51,9.43,3
866,9.45,-0.75,-0.42,2.06,7.13,8.82,3
891,9.77,-0.65,-0.4,0.6,2.68,8.14,3
915,9.88,-0.72,-0.33,-0.56,-0.19,5.58,3
940,9.79,-0.79,-0.29,-0.68,0.42,1.74,3
964,9.63,-0.69,-0.22,0.05,5.48,-0.27,3
989,9.54,-0.61,-0.18,0.54,1.58,0.03,3
1013,9.42,-0.9,-0.02,1.69,-4.46,-0.15,3
1038,9.38,-0.83,-0.05,3.28,-0.8,-0.39,3
1063,9.37,-0.71,-0.04,3.65,-5.49,-1.12,3
1087,9.1,-0.72,0.04,3.83,-11.04,-2.95,3
1113,8.96,-0.87,-0.05,4.68,-1.35,-3.62,3
1137,8.93,-0.96,-0.15,5.48,2.74,-1.86,3
1162,9,-0.8,-0.18,4.68,-4.09,0.71,3
1187,9.07,-0.87,-0.35,3.28,-2.99,1.56,3
1211,9.27,-0.92,-0.44,3.1,-0.8,1.19,3
1236,9.46,-1.01,-0.51,2.85,-3.78,-0.57,3
1260,9.41,-1.05,-0.74,1.45,0.3,-3.01,3
1285,9.44,-1.02,-0.93,-0.99,5.73,-5.76,3
1309,9.37,-0.96,-0.67,-2.94,-0.25,-8.01,3
1334,9.19,-1,-0.63,-4.34,-3.05,-10.64,3
1359,8.91,-1.06,-0.53,-5.44,2.74,-12.04,3
1383,8.7,-0.91,-0.64,-6.9,7.37,-11.12,3
1408,8.7,-0.81,-0.33,-7.7,3.04,-8.99,3
1432,8.68,-0.73,-0.36,-7.27,2.92,-5.51,3
1457,8.89,-0.72,-0.25,-6.23,1.82,-1.37,3
1481,8.68,-0.67,-0.14,-5.5,-5.68,0.64,3
1506,8.97,-0.66,-0.13,-5.62,0.42,1.86,3
1531,9.04,-0.71,-0.17,-5.44,3.72,2.47,3
1555,9.27,-0.83,0,-4.04,2.5,1.99,3
1580,9.34,-0.86,0.01,-0.81,0.54,1.19,3
1604,9.11,-0.82,-0.14,0.41,-5.37,1.25,3
1630,8.97,-0.67,-0.4,-0.68,-1.41,2.53,3
1655,8.98,-0.78,-0.28,-1.84,0.54,3.88,3
1679,9.04,-0.67,-0.34,-2.82,-4.94,3.94,3
1704,9.14,-0.61,-0.3,-4.1,-1.35,3.94,3
1728,9.15,-0.73,-0.13,-3.37,3.41,3.14,3
1753,9.41,-0.68,-0.05,-1.54,1.76,2.29,3
1777,9.07,-0.66,-0.2,-1.05,-2.93,1.19,3
1802,9.18,-0.52,-0.18,-1.84,6.82,1.44,3
1827,8.98,-0.51,0.37,-1.48,16.21,-0.39,3
1851,9.63,-0.33,0.65,2.12,34.63,-3.75,3
1876,9.53,-0.54,0.24,7.91,9.32,-1.67,3
1900,8.91,-0.58,-0.46,4.8,-25.74,1.07,3
1925,9.07,-0.74,-0.32,2.55,3.17,3.08,3
1949,9.19,-0.71,-0.27,-0.44,4.57,2.23,3
1974,9.44,-0.85,-0.22,-0.38,-2.38,1.86,3
1999,9.17,-0.86,-0.19,-0.32,-7.57,0.34,3
2023,8.88,-0.71,-0.14,-1.48,-2.26,-0.09,3
2048,8.87,-0.73,0.13,-1.78,6.89,-0.51,3
2072,9.25,-0.63,0.12,0.41,9.39,1.56,3
2097,9.12,-0.53,0.01,2.61,-9.64,3.39,3
2121,9.19,-0.7,0.01,3.65,-15.98,3.94,3
2147,9.15,-0.64,-0.2,4.19,1.4,2.84,3
2172,9.04,-0.69,0.01,4.93,6.82,2.05,3
2196,9.06,-0.68,-0.08,4.93,9.51,1.68,3
2221,9.2,-0.62,-0.1,5.66,9.2,3.51,3
2245,8.91,-0.91,-0.22,5.96,-4.82,4.97,3
2270,8.69,-0.86,-0.4,4.74,2.68,6.99,3
2295,8.4,-0.85,-0.37,2.37,4.93,10.1,3
2319,8.3,-1.02,-0.08,-0.13,1.22,13.27,3
2344,8.08,-1.15,0.06,-0.26,12.74,16.68,3
2368,7.8,-1.26,0.49,2.49,8.53,22.53,3
2393,7.63,-1.27,0.71,7.49,-1.83,28.75,3
2417,7.31,-1.42,0.83,12.12,0.54,36.31,3
2442,7.12,-1.35,0.94,15.6,-1.53,46.25,3
2467,7.36,-1.52,1.47,19.62,-5.07,53.69,3
2492,8.3,-2.03,2.16,30.6,6.4,58.02,3
2517,8.62,-2.33,2.25,46.21,-6.41,62.35,3
2541,9.16,-2.32,2.22,60.47,-32.99,67.47,3
2566,11.85,-2.48,2.64,76.02,-10.55,62.9,3
2590,14.6,-2.77,2.27,90.9,9.81,43.88,3
2616,18.48,-3.62,1.37,97.67,41.21,19.18,3
2641,18.6,-3.55,0.49,104.74,47.37,-23.14,3
2665,18.6,-3.79,-1.42,92.06,18.53,-82.04,3
2690,18.6,-3.67,-2.32,70.9,47.5,-148.93,3
2715,18.6,-4.48,-1.94,51.51,50.42,-216.73,3
2740,18.6,-5.23,-2.01,34.13,67.19,-284.6,3
2765,17.13,-5.97,-1.74,24.68,119.45,-337.28,3
2790,13.56,-7.12,-1.25,23.83,139.81,-368.99,3
2815,7.74,-6.51,-3.5,22.55,129.93,-369.66,3
2839,1.77,-6.01,-5.53,10.66,99.81,-335.08,3
2864,-2.95,-5.28,-8.37,-25.44,57.37,-272.34,3
2889,-4.92,-4.76,-10.05,-80.99,110.42,-193.93,3
2914,-5.13,-5.13,-9.9,-137.88,78.96,-111.61,3
2939,-5.65,-6.59,-8.49,-199.03,-79.33,-27.34,3
2964,-4.66,-8.78,-6.66,-254.89,-135.31,59.18,3
2989,-2.14,-10.96,-5.45,-310.74,-128.72,129.79,3
3013,1.71,-13.83,-4.31,-362.94,-170.06,179,3
3039,6.61,-16.8,-3.24,-428.12,-165.43,204.85,3
3064,13.46,-19.65,1.2,-483.85,-149.64,200.95,3
3089,17.86,-19.65,5.41,-510.56,-187.26,166.25,3
3114,18.6,-19.65,7.86,-522.39,-102.69,113.02,3
3139,18.6,-19.65,10.22,-511.23,6.82,34.06,3
3164,18.6,-19.65,10.34,-471.96,14.93,-31.43,3
3188,18.6,-18.75,10.65,-433.91,-9.58,-96.06,3
3214,18.6,-17.34,10.33,-395.37,-61.16,-145.76,3
3239,18.6,-13.71,11.24,-347.14,-65.55,-169.96,3
3264,17.76,-11.59,12.15,-280.99,-36.53,-195.02,3
3289,16.88,-10.43,12.89,-214.95,-36.71,-229.29,3
3313,14.16,-7.35,14.87,-132.02,-79.7,-241.73,3
3339,11.94,-5.16,13.52,-43.67,-80.74,-254.54,3
3364,11.5,-5.52,11.14,32.91,-63.78,-268.38,3
3389,10.13,-6.03,9.03,94.86,-42.44,-281.91,3
3414,9.59,-7.16,8.17,148.89,-33.24,-294.9,3
3438,7.65,-9.28,7.79,210.78,-54.94,-301.97,3
3463,5.17,-9.87,6.05,253.16,-63.48,-300.63,3
3488,4.22,-10.86,5.85,282.79,5.06,-289.78,3
3513,2.2,-11.56,4.64,319.19,61.28,-256.06,3
3538,0.62,-10.98,4.37,354.31,19.32,-207.83,3
3563,0.84,-11.55,4.24,382.85,49.93,-169.05,3
3588,1.09,-13.1,2.33,410.59,121.52,-122.59,3
3612,0.55,-12.01,1.04,421.14,112.31,-61.31,3
3638,2.91,-13.57,0.81,428.28,100.85,-22.04,3
3663,6.27,-15.38,0.99,438.15,175.3,13.27,3
3687,8.67,-15.79,-0.21,450.71,143.23,37.17,3
3713,10.29,-17.66,-1.72,455.23,61.46,43.57,3
3737,13.45,-19.65,-3.3,454.43,52.74,37.11,3
3763,15.5,-19.65,-6.69,449.92,9.39,33.75,3
3787,16.99,-19.65,-10.65,412.61,-110.25,-8.26,3
3812,18.6,-19.65,-15.7,338.09,-52.2,-82.1,3
3838,18.6,-19.65,-18.89,227.91,3.53,-151.55,3
3862,18.26,-19.65,-19.22,90.66,-98.3,-232.83,3
3887,15.67,-19.08,-17.87,-38,-72.44,-306.79,3
3912,13.9,-19.18,-14.06,-123.06,41.58,-365.75,3
3937,11.7,-18.36,-11.74,-166.72,71.95,-406.18,3
3963,7.37,-16.63,-10.15,-200.56,59.81,-417.89,3
3987,4.28,-14.19,-9.4,-223.18,109.51,-397.58,3
4013,0.92,-11.38,-9.2,-242.02,115.48,-358.19,3
4037,0.21,-9.21,-8.76,-270.74,139.99,-308.5,3
4062,-1.38,-8.46,-6.5,-292.63,136.4,-262.52,3
4088,-1.9,-7.83,-4.65,-306.9,117.37,-210.21,3
4112,-2.39,-8.06,-3.7,-327.45,100.85,-153.93,3
4137,-1.36,-8.92,-2.51,-350.62,40.42,-94.05,3
4162,0.05,-10.37,-1,-374.4,-46.16,-30.21,3
4187,1.93,-12.51,0.18,-397.02,-136.47,25.64,3
4211,3.61,-14.45,-0.11,-429.52,-142.75,66.07,3
4237,5.22,-18.93,0.21,-488.97,-103.42,76.01,3
4262,9.22,-19.65,3.01,-549.09,-21.47,50.34,3
4286,12.11,-19.65,6.92,-570.49,-15.55,0.22,3
4312,14.34,-19.65,11.85,-555.74,-150.49,-25.21,3
4336,16.35,-19.65,14.83,-507.69,-199.39,-39.96,3
4361,18.57,-19.65,17.24,-423,-83.97,-69.35,3
4387,18.6,-15.48,14.37,-316.11,-22.93,-109.05,3
4411,18.6,-12.65,11.76,-235.56,-31.77,-166.49,3
4437,18.6,-10.49,11.68,-169.95,-150.12,-218.56,3
4461,17.23,-10.71,11.19,-112.39,-158.84,-267.22,3
4487,13.83,-10.39,9.68,-54.1,-127.14,-296.36,3
4511,10.08,-8.37,7.69,-7.15,-163.3,-301.3,3
4536,8.16,-6.99,6.58,24.19,-123.91,-298.74,3
4562,7.2,-5.76,7.1,66.63,-37.08,-293.44,3
4586,5.17,-5.42,7.68,124.38,-22.08,-275.63,3
4611,3,-4.91,5.93,184.68,-116.28,-239.6,3
4636,2.51,-3.91,4.13,216.81,-183.36,-207.22,3
4661,1.13,-3.94,4.07,247.24,-82.93,-186.67,3
4686,1.38,-6.21,3.78,281.94,-39.94,-162.65,3
4711,1.32,-6.2,2.16,316.02,-58.42,-133.2,3
4736,2.4,-8.6,1.61,344.07,-66.41,-113.62,3
4760,2.74,-8.6,0.34,367.48,-22.63,-99.6,3
4785,6.24,-10.25,0.08,387.73,36.89,-95.39,3
4810,7.53,-14.07,-0.2,412.79,22.43,-97.65,3
4835,7.17,-13.58,-2,430.53,5.12,-90.27,3
4860,9,-16.52,-2.19,438.28,20.24,-95.88,3
4885,12.77,-16.77,-2.93,444.31,122.98,-102.89,3
4910,13.93,-19.65,-3.16,456.93,52.86,-104.6,3
4934,15.35,-19.65,-6.84,445.59,-11.1,-124.42,3
4960,17.6,-19.65,-11.26,405.35,-13.05,-155.09,3
4985,15.47,-19.65,-14.54,328.09,-84.33,-184.23,3
5010,14.9,-19.47,-18.56,209.07,-102.26,-211.12,3
5035,15.02,-17.72,-19.22,72.91,-80.19,-240.88,3
5060,14.6,-17.56,-16.54,-59.83,-68.11,-280.82,3
5085,12.7,-17.64,-12.06,-144.4,-39.58,-323.93,3
5109,9.61,-16.21,-9.58,-198.18,1.52,-356.12,3
5135,6.13,-14.86,-8.41,-227.27,62.07,-369.53,3
5160,3.18,-12.88,-7.65,-243.49,96.88,-359.17,3
5184,0.68,-10.71,-7.32,-253.85,109.81,-328.68,3
5210,-1.17,-8.63,-6.66,-266.35,135.97,-285.69,3
5234,-1.69,-7.55,-6.58,-280.86,160.24,-245.63,3
5260,-0.83,-7.03,-6.1,-304.03,158.96,-210.15,3
5285,-2.34,-7.79,-5.75,-340.31,94.08,-168.62,3
5309,-2.53,-9.14,-4.25,-378.24,55.3,-108.56,3
5335,-1.75,-10.76,-1.78,-400.98,-20.31,-40.03,3
5359,0.54,-12.39,-0.41,-418.18,-154.21,34.67,3
5384,3.41,-14.59,0.32,-438.91,-220,97.41,3
5410,8.27,-16.38,2.01,-470.86,-160.31,109.97,3
5434,14.12,-19.32,5.43,-494.95,-64.64,57.11,3
5459,18.52,-19.65,9.06,-492.81,-7.08,-21.49,3
5484,18.6,-19.24,12.52,-442.51,-82.08,-78.99,3
5509,18.17,-17.35,11.9,-398.79,-203.66,-115.09,3
5534,18.43,-18.43,11.22,-380.74,-233.17,-132.22,3
5559,17.39,-18.27,11.28,-354.58,-139.33,-141.37,3
5585,18.6,-15.35,12.24,-317.81,-67.38,-159.54,3
5609,18.6,-13.68,13.84,-261.78,-102.2,-187.71,3
5635,18.29,-10.52,15.14,-201.41,-127.63,-212.89,3
5659,17.88,-7.94,15.68,-127.63,-94.33,-243.87,3
5684,16.75,-6.75,14.89,-45.68,-52.14,-273.32,3
5710,14.04,-7.52,13.35,31.39,-67.08,-298.99,3
5734,11.8,-4.65,11.2,89.8,-77.02,-311.3,3
5760,8.85,-6.79,10.4,144.62,-91.1,-315.45,3
5784,6.42,-6.65,9.13,195.11,-52.75,-311.61,3
5809,4.15,-9.2,7.68,245.47,-58.17,-287.77,3
5833,1.33,-7.43,5.44,282,-132.26,-255.51,3
5859,-0.31,-5.85,4.59,294.44,-134.45,-234.41,3
5884,1.24,-8.21,4.71,324.07,34.2,-213.87,3
5908,1.68,-8.46,3.73,366.51,110.48,-175.09,3
5934,3.16,-10.41,3.16,399.31,31.34,-141.79,3
5958,3.08,-11.49,2.49,423.09,22.86,-128.44,3
5984,5.38,-14.44,2.43,448.52,118.59,-118.81,3
6009,9.07,-17.47,2.14,480.23,210.18,-100.39,3
6033,11.22,-18.11,0.3,514.62,132.74,-75.15,3
6059,12.84,-19.65,-0.83,528.88,-9.76,-84.72,3
6083,15.38,-19.65,-5.05,524.19,19.75,-123.68,3
6108,16.62,-19.65,-11.12,498.28,89.81,-134.96,3
6133,15.02,-19.65,-16.84,418.03,-131.22,-159.72,3
6158,13.16,-19.65,-19.22,268.64,-149.45,-202.46,3
6184,12.81,-19.65,-19.22,111.33,-68.05,-222.4,3
6208,12.63,-19.26,-17.68,-13.67,-105.86,-246.61,3
6234,12.22,-18.88,-14.7,-105.19,-51.65,-278.99,3
6258,11.65,-18.35,-12.07,-159.46,32.13,-317.1,3
6284,9.46,-17.21,-10.61,-193.61,33.11,-343.93,3
6309,7.87,-16.08,-10.16,-221.29,34.2,-344.96,3
6333,4.52,-14.11,-10.82,-247.33,38.71,-328.13,3
6359,2.11,-12.06,-10.58,-284.89,28.59,-295.57,3
6383,1.06,-10.11,-9.14,-322.2,44.32,-252.65,3
6409,-1.41,-9.46,-7.67,-360.68,27.37,-205.76,3
6434,-1.81,-9.4,-5.1,-386.59,51.28,-157.16,3
6458,-1.79,-9.33,-3.18,-405.62,52.5,-110.88,3
6484,-0.88,-9.71,-1.15,-420.31,-3.36,-64.78,3
6508,0.99,-9.9,1.36,-425.13,-57.69,-18.87,3
6533,3.92,-9.56,4.52,-414.15,-141.47,26.19,3
6557,6.52,-11.18,6.46,-384.28,-174.94,52.47,3
6583,6.81,-11.89,4.84,-371.11,-160.73,65.1,3
6608,8.1,-10.46,3.34,-392.02,-151.71,69.73,3
6632,10.46,-12.67,4.98,-405.25,-188.54,76.13,3
6658,11.74,-14.56,6.37,-401.59,-264.88,89.49,3
6682,14.31,-15.94,6.65,-401.84,-252.62,105.83,3
6708,17.83,-16.76,6.76,-388.06,-188.23,112.41,3
6733,18.6,-17.19,6.87,-375.44,-113.42,83.14,3
6758,18.6,-15.97,8.33,-354.58,-44.58,17.23,3
6783,18.6,-14.17,10.09,-316.11,-58.91,-81.43,3
6807,18.6,-12.18,11.89,-264.89,-130.43,-182.59,3
6833,18.6,-11.17,13.32,-201.78,-165.8,-255.02,3
6857,18.6,-10.21,12.85,-137.02,-197.08,-304.29,3
6883,15.38,-9,11.11,-90.56,-226.22,-336.36,3
6908,12.41,-7.73,9.92,-50.68,-110.67,-360.08,3
6933,8.83,-6.54,9.52,11.63,23.84,-371.91,3
6958,8.23,-7.04,9.45,93.16,85.48,-362.1,3
6982,3.27,-5.97,7.58,170.41,13.96,-332.52,3
7007,1.88,-5.45,6.04,211.27,-122.69,-301.06,3
7033,1.21,-5.89,5.46,249.01,-6.1,-271.18,3
7057,0.62,-6.5,4.48,296.69,40.91,-234.29,3
7082,-1.19,-5.72,3.15,327.85,-26.1,-204.72,3
7107,-0.8,-7.21,2.84,352.85,81.52,-178.56,3
7132,2.01,-9.32,2.28,391.02,176.58,-130.15,3
7156,2.9,-10.6,1.66,425.9,122.8,-81.67,3
7181,4.65,-13.22,1.45,454.31,105.18,-55.82,3
7207,8.83,-18.31,1.76,487.67,154.93,-43.5,3
7231,11.52,-19.65,0.18,528.58,163.41,-25.09,3
7257,13.75,-19.65,-2.96,550.53,65.18,-23.01,3
7281,16.15,-19.65,-9.65,532.48,-24.7,-61.55,3
7306,15.41,-19.65,-14.63,467.91,-65.31,-110.27,3
7332,12.97,-19.65,-19.22,341.81,-156.53,-169.6,3
7356,10.27,-19.65,-19.22,194.56,-127.08,-202.22,3
7382,9.49,-19.13,-18.71,52.3,-137.2,-204.66,3
7406,10.3,-18.74,-14.81,-56.48,-163.3,-211.37,3
7432,10.58,-18.88,-11.27,-130.93,-89.58,-242.58,3
7456,10.27,-18.46,-9.23,-172.08,-21.35,-293.8,3
7481,8.72,-17.15,-8.03,-188.67,27.8,-334.96,3
7507,6.97,-15.65,-7.59,-195.5,39.51,-354.6,3
7531,4.03,-14.11,-8.03,-210.19,8.59,-352.28,3
7556,1.22,-11.71,-8.43,-230.13,18.35,-330.94,3
7581,-0.99,-9.66,-8.62,-253.67,52.37,-300.82,3
7606,-1.95,-8.41,-8.34,-278.3,100.3,-265.33,3
7632,-2.18,-7.56,-6.95,-301.9,101.64,-228.32,3
7656,-2.81,-6.99,-5.25,-318.3,51.46,-179.11,3
7681,-3.62,-6.25,-3.73,-335.86,-16.89,-110.15,3
7706,-3.57,-6.58,-1.55,-351.96,-84.52,-28.26,3
7731,-2.59,-7.25,0.03,-359.03,-137.62,61.19,3
7755,-0.55,-8.77,0.99,-361.23,-229.64,156.19,3
7780,1.97,-10.03,0.35,-363.12,-342.74,254.79,3
7806,6.09,-13.08,-0.31,-360.92,-410.85,343.51,3
7830,11.65,-16.04,-1.52,-364.95,-346.34,383.38,3
7856,18.6,-17.72,-1.26,-394.76,-142.75,343.69,3
7880,18.6,-15.23,1.45,-419.03,-72.63,234.12,3
7906,18.6,-14.19,5.07,-390.19,-224.88,154.24,3
7931,18.6,-15.09,3.84,-319.34,-291.28,144.79,3
7955,18.6,-13.66,2.03,-261.96,-63.72,152.78,3
7981,18.6,-11.83,1.01,-239.22,45.54,134.12,3
8005,18.6,-10.09,-0.32,-236.47,-36.47,68.51,3
8031,18.6,-9.63,-0.03,-243.61,15.91,-28.81,3
8056,18.6,-8.28,3.37,-230.8,-56.89,-132.71,3
8080,18.6,-7.03,5.01,-198.3,-156.65,-206.3,3
8106,18.6,-6.47,6.08,-154.04,-148.78,-247.65,3
8130,13.8,-5.22,6.08,-108.61,-150.92,-278.68,3
8155,10.05,-4.16,6.16,-65.19,-96.77,-302.65,3
8180,7.26,-3.56,5.64,-7.33,-15.98,-318.01,3
8205,4.76,-3.92,5.45,53.77,28.17,-317.4,3
8230,3.24,-4.87,4.96,108.34,-1.1,-301.67,3
8254,1.7,-4.22,4.36,154.56,-27.69,-280.57,3
8280,1.24,-3.86,3.99,196.81,-11.04,-258.99,3
8304,1.01,-5.23,4.2,247.85,42.31,-235.33,3
8329,0.42,-5.54,2.96,294.07,68.1,-207.46,3
8355,1.56,-6.7,2.12,335.9,102.8,-177.83,3
8379,4.47,-8.95,3.36,383.34,147.43,-143.93,3
8404,6.42,-12.91,4.15,441.08,114.69,-116.43,3
8429,8.52,-17,3.09,492.73,74.87,-116.79,3
8454,8.97,-19.26,1.08,522.67,71.95,-118.01,3
8478,11.36,-19.65,-0.64,550.53,112.98,-110.33,3
8504,11.85,-19.65,-3.92,562.3,66.95,-96.24,3
8529,13.25,-19.65,-9.37,531.69,-20.37,-111.06,3
8554,14.71,-19.65,-15.48,466.08,0.12,-135.02,3
8579,12.58,-19.65,-19.22,333.4,-145.12,-162.46,3
8603,12.14,-19.65,-19.22,142.49,-212.62,-196.61,3
8629,11.36,-19.65,-19.22,-33,-125.92,-213.01,3
8654,11.28,-19.6,-13.05,-138.73,-124.15,-243.87,3
8679,11,-19.05,-9.06,-196.9,-61.59,-288.56,3
8704,9.86,-18.05,-7.19,-215.07,37.56,-332.34,3
8729,8.17,-16.49,-6.26,-216.66,50.67,-359.47,3
8754,5.62,-14.32,-6.28,-217.57,20.97,-359.29,3
8778,3.63,-11.72,-6.77,-224.4,25.24,-339.05,3
8804,0.82,-9.43,-7.92,-239.16,10.3,-306.18,3
8829,-1.45,-7.58,-8.42,-266.53,13.17,-258.19,3
8853,-2.26,-6.54,-7.8,-300.01,35.85,-202.65,3
8879,-2.12,-6.13,-6.44,-330.62,47.56,-153.07,3
8903,-1.71,-6.26,-4.6,-353.36,34.57,-104.54,3
8928,-1.26,-6.73,-2.88,-371.17,-30.98,-47.1,3
8954,-0.98,-7.41,-1.33,-386.59,-121.1,23.82,3
8978,0.43,-8.91,0.5,-395.31,-192.5,102.59,3
9003,2.88,-9.85,1.66,-385.68,-234.33,170.28,3
9028,6.33,-10.23,2.42,-361.05,-292.26,226.13,3
9053,8.01,-11.51,1.7,-337.2,-363.05,260.52,3
9077,10.44,-13.41,0.2,-338.3,-265.98,260.89,3
9103,13.92,-14.18,-0.44,-364.64,-97.26,221.25,3
9128,17,-15.23,1.55,-388.73,-63.48,186.44,3
9153,18.6,-17.38,3.79,-363.97,-181.16,184.73,3
9178,18.6,-16.35,1.48,-321.17,-265.06,180.7,3
9202,18.6,-15.89,-0.52,-314.46,-84.03,133.27,3
9228,18.6,-13.48,1.24,-320.19,9.51,46.38,3
9253,18.6,-11.64,4.32,-307.33,-74.27,-42.77,3
9277,18.6,-9.1,6.75,-275.92,-110.73,-124.54,3
9303,18.6,-7.53,8.92,-221.66,-116.16,-200.02,3
9327,18.6,-6.49,9.1,-163.49,-117.81,-263.07,3
9353,15.52,-6.35,8.01,-107.94,-84.76,-303.13,3
9378,11.3,-5.27,7.09,-51.23,-43.91,-323.13,3
9402,7.39,-5.14,6.76,6.02,-41.16,-332.64,3
9428,4.46,-5.77,6.27,60.84,-33.42,-331.61,3
9452,3.73,-5.61,5.65,117.73,-16.16,-315.82,3
9477,0.21,-5.71,4.36,160.23,-69.82,-295.88,3
9501,-0.79,-5.02,3.29,189.68,-54.03,-270.63,3
9527,-1.62,-4.62,2.76,224.44,13.41,-233.13,3
9552,-1.69,-4.84,2.4,262.97,45.85,-191.24,3
9576,-1.98,-5.44,2.1,301.27,52.8,-155.09,3
9602,-0.04,-6.59,1.82,342.67,117.86,-113.07,3
9626,3.19,-9.92,1.56,390.35,191.27,-63.32,3
9651,5.78,-12.29,1.03,440.11,151.95,-21.67,3
9677,7.98,-16.02,0.62,478.03,123.04,-7.22,3
9701,13.85,-19.65,0.76,517.73,186.88,-3.2,3
9726,18.13,-19.65,-2.72,560.71,148.04,-17.95,3
9751,15.91,-19.65,-7.31,554.19,-41.83,-69.78,3
9776,18.31,-19.65,-10.5,497.73,-17.32,-142.52,3
9800,18.07,-19.65,-16.94,411.75,22.92,-204.29,3
9826,16.47,-19.65,-19.22,277.36,-134.09,-253.13,3
9851,13.88,-19.65,-19.22,100.78,-157.56,-298.62,3
9876,12.69,-19.65,-17.38,-50.62,-94.64,-330.14,3
9901,11.97,-19.03,-10.74,-143.49,-54.7,-363.86,3
9926,10.2,-18.21,-6.9,-184.71,-24.46,-398.74,3
9951,7.73,-16.73,-4.24,-189.34,65.18,-423.38,3
9977,5.43,-13.73,-3.64,-169.77,58.47,-424.9,3
10001,2.27,-10.89,-3.65,-159.95,-5.31,-396.49,3
10026,0.21,-7.71,-4.82,-167.02,5.48,-357.58,3
10051,0.3,-5.44,-6.12,-172.08,82.56,-319.54,3
10076,-2.13,-4.26,-7.83,-191.84,33.78,-271.43,3
10100,-3.38,-3.08,-8.93,-244.52,5.06,-207.89,3
10126,-2.83,-3.71,-7.92,-309.16,19.87,-141.24,3
10151,-1.89,-5.28,-5.29,-365.56,-33.48,-75.09,3
10175,-0.83,-7.62,-2.27,-407.81,-121.89,-1.49,3
10201,1.01,-10.58,-0.3,-439.76,-180.37,78.75,3
10225,3.84,-14.01,1.29,-466.11,-248.29,160.89,3
10250,7.65,-18.92,2.25,-483.61,-344.64,254.36,3
10276,11.75,-19.65,2.46,-505.25,-327.87,322.59,3
10300,18.6,-19.65,2.91,-562.08,-58.66,251.07,3
10326,18.6,-19.65,7.68,-615.86,207.25,34.24,3
10350,18.6,-19.65,12.09,-573.54,139.26,-137.59,3
10376,17.33,-19.65,13.4,-477.51,-116.22,-186.55,3
10400,18.6,-19.65,12.14,-438.79,-347.14,-186.18,3
10426,18.6,-18.6,12.11,-406.47,-142.2,-209.54,3
10451,17.39,-15.33,14.26,-326.78,-45.37,-238.99,3
10476,14.66,-11.61,15.23,-233.42,-140.25,-246.79,3
10501,15.14,-7.66,15.06,-151.78,-157.14,-244.54,3
10526,13.67,-4.98,13.71,-69.71,-62.2,-258.19,3
10551,10.29,-4.32,11.67,6.21,-36.1,-273.32,3
10577,8.57,-4.84,9.59,74.62,-23.42,-270.51,3
10601,6.68,-3.83,7.64,133.22,-20.31,-250.51,3
10626,5.96,-3.05,6.31,178.03,-66.77,-233.87,3
10651,5.75,-4.79,5.73,219.68,-63.36,-226.06,3
10676,4.64,-5.81,4.15,262.61,-62.75,-216.85,3
10701,3.63,-6.05,2.78,291.63,-96.47,-207.04,3
10726,2.67,-5.39,1.94,310.9,-80.74,-202.16,3
10751,3.5,-8.86,2.03,343.09,-27.93,-199.9,3
10775,3.19,-9.49,0.35,377.48,-25.8,-192.46,3
10801,3.88,-10.23,-0.81,404.8,-26.35,-182.59,3
10825,3.42,-14.11,-0.96,430.04,12.07,-171.61,3
10850,4.33,-15.1,-1.17,448.89,46.7,-157.22,3
10876,8.08,-16.57,-1.26,474.5,84.2,-136.91,3
10900,9.73,-19.65,-1.41,504.19,26.76,-124.42,3
10926,9.62,-19.65,-4.65,512.54,-97.26,-137.65,3
10950,10.24,-19.65,-9.02,484.86,-113.97,-175.94,3
10976,10.31,-19.65,-12.26,427.73,-37.14,-202.65,3
11001,10.59,-19.65,-15.31,342.61,-96.22,-219.9,3
11026,9.73,-19.65,-18.42,227.18,-132.56,-234.47,3
11051,7.51,-19.65,-18.95,91.08,-162.2,-238.01,3
11076,7.09,-18.23,-16.36,-35.8,-145.73,-235.94,3
11101,7.44,-17.47,-13.5,-130.26,-64.45,-247.46,3
11125,8.29,-17.46,-10.54,-186.66,8.9,-276.67,3
11151,8.12,-16.49,-8.55,-211.17,23.9,-310.14,3
11176,5.53,-15,-7.4,-224.1,0,-329.96,3
11201,4.49,-13,-6.81,-233.3,69.63,-338.32,3
11226,2.55,-11.12,-6.25,-225.86,87.74,-328.44,3
11250,0.54,-8.33,-5.92,-218.18,45.91,-296.79,3
11276,-1.41,-6.16,-6.26,-221.41,19.57,-252.46,3
11301,-2.45,-4.05,-5.66,-228.91,62.31,-198.93,3
11325,-2.32,-2.96,-5.52,-236.6,103.96,-148.74,3
11351,-1.5,-2.71,-5.26,-250.25,61.58,-100.7,3
11375,-1.03,-3.09,-5.07,-272.94,0.85,-50.09,3
11400,-1.07,-4.01,-4.42,-309.03,-52.14,1.32,3
11426,0.19,-6.07,-3.28,-350.37,-68.78,50.83,3
11450,1.03,-8.5,-2.55,-389.89,-86.89,90.64,3
11475,1.93,-11.52,-1.72,-441.04,-79.45,112.05,3
11500,5.25,-15.77,0.56,-505.68,-16.96,114.73,3
11525,8.1,-19.65,2.97,-556.65,-63.54,117.84,3
11549,10.7,-19.65,5.43,-580.49,-184.7,135.34,3
11575,16.3,-19.65,8.88,-572.14,-208.42,138.57,3
11600,18.6,-19.65,11.2,-545.13,-142.69,76.38,3
11625,18.6,-19.62,11.41,-497.51,-67.38,-17.77,3
11650,18.6,-16.99,10.98,-431.84,-29.64,-85.33,3
11675,18.6,-15.39,12.36,-366.41,-155.8,-134.78,3
11700,18.6,-14.45,12.35,-307.69,-212.44,-172.65,3
11726,18.6,-12.58,12.8,-249.89,-126.41,-203.5,3
11750,18.6,-8.96,13.27,-175.01,-140.86,-231.98,3
11776,18.6,-6.18,12.34,-103.43,-141.22,-256,3
11800,15.88,-5.93,10.63,-38.85,-85.92,-290.39,3
11826,12.34,-6.17,8.94,17.37,-53.54,-315.94,3
11850,10,-5.63,7.65,69.99,-61.83,-319.72,3
11875,7.04,-5.44,6.88,116.82,-67.75,-316.43,3
11901,5.11,-5.47,6.07,159.32,-60.98,-308.62,3
11925,3.4,-6.2,4.93,204.56,-50.67,-289.78,3
11951,1.33,-5.59,4.29,245.41,-72.14,-261.24,3
11975,0.06,-5.79,2.95,277.48,-86.28,-237.16,3
12000,0.49,-7.44,2.25,309.56,-44.82,-214.23,3
12026,-0.64,-7.1,1.23,342.24,-1.77,-184.54,3
12050,0.46,-8.14,1.07,371.87,39.45,-148.2,3
12075,2.91,-11.55,0.63,405.59,47.86,-119.6,3
12100,3.69,-12.93,-1.02,438.58,25.54,-95.27,3
12125,5.98,-14.14,-2.1,462.06,23.11,-84.35,3
12149,10.38,-19.65,-2.36,483.03,86.52,-93.07,3
12175,12.5,-19.65,-4.45,498.7,64.93,-107.53,3
12200,12.98,-19.65,-6.48,488.64,-59.7,-148.74,3
12224,12.61,-19.65,-8.87,450.41,-40.06,-202.83,3
12250,13.75,-19.65,-12.64,389.43,62.07,-236.18,3
12274,14.51,-19.65,-14.69,310.47,-37.44,-265.76,3
12300,13.48,-19.65,-17.74,197.18,-140.73,-301.18,3
12325,12.42,-19.65,-18.84,55.78,-95,-324.47,3
12350,12.78,-19.65,-16.33,-68.24,-80.8,-343.32,3
12375,12.31,-19.65,-12.37,-155.93,-33.11,-381.55,3
12400,11.2,-19.65,-8.4,-201.41,62.07,-426.42,3
12425,7.54,-17.78,-5.85,-200.32,44.45,-444.17,3
12451,4.72,-15.55,-5.14,-198.3,2.74,-425.27,3
12475,1.61,-11.69,-5.37,-190.5,31.58,-388.38,3
12501,-0.82,-7.82,-6.43,-193.18,13.04,-334.66,3
12525,-2.83,-5.65,-6.74,-213.55,7.25,-267.04,3
12550,-3.05,-4.1,-6.61,-243,34.75,-202.4,3
12575,-2.22,-3.96,-5.16,-267.81,29.02,-147.46,3
12600,-1.61,-4.36,-3.96,-291.11,-27.75,-94.66,3
12625,-0.89,-4.99,-3.4,-323.24,-57.69,-42.16,3
12650,1.18,-6.54,-2.87,-360.56,-60.61,0.1,3
12675,2.92,-7.81,-2.52,-404.7,-82.44,25.95,3
12699,3.59,-10.99,-1.26,-452.14,-136.77,44.36,3
12725,3.91,-14.92,-0.07,-502.87,-163.84,64.85,3
12750,5.54,-19.65,2.34,-561.41,-133.6,86.99,3
12774,9.79,-19.65,6.31,-602.02,-96.71,85.95,3
12800,15.62,-19.65,11,-599.58,-81.22,54.12,3
12824,18.35,-19.65,13.74,-565.01,-73.66,-9.78,3
12849,18.6,-19.65,14.51,-512.75,-35.98,-84.42,3
12874,18.6,-19.65,17.05,-436.9,-78.24,-132.89,3
12899,18.6,-17.42,17.99,-347.2,-169.94,-176.43,3
12925,18.6,-15.27,17.36,-264.83,-148.11,-226.79,3
12949,18.6,-12.71,15.74,-173.18,-126.77,-265.76,3
12975,17.55,-11.3,13.99,-99.4,-187.69,-286.36,3
13000,15.8,-10.24,11.83,-47.51,-200.86,-306.3,3
13025,13.29,-8.9,10.23,-4.4,-108.72,-327.52,3
13050,10.84,-8.94,9.74,48.22,-96.04,-343.32,3
13075,7.53,-8.41,8.01,96.69,-145.73,-339.17,3
13100,5.52,-6.71,6.44,125.54,-175.43,-323.5,3
13125,4.46,-6.06,6.3,152.67,-118.11,-302.52,3
13150,3.44,-5.98,5.58,196.57,-63.17,-281.67,3
13175,2.24,-4.84,4.48,240.53,-64.21,-255.57,3
13200,1.5,-5.21,3.88,281.57,-65.37,-228.5,3
13225,1.46,-7.62,3.26,320.78,-48.48,-210.21,3
13249,1.77,-8.6,1.86,359.13,-17.57,-192.34,3
13275,1.95,-8.79,0.7,391.33,-9.46,-171.24,3
13299,3.84,-12.37,1.18,424.31,-1.96,-161.37,3
13324,7.18,-16.95,1.16,461.63,55.24,-161.37,3
13350,6.06,-17.67,-0.55,489.56,-28.36,-161.85,3
13374,7.64,-19.65,-1.21,499.49,-56.47,-181.73,3
13399,10.08,-19.65,-1.02,511.99,60.06,-191.67,3
13424,10.48,-19.65,-4.85,521.45,28.71,-189.6,3
13449,10.44,-19.65,-9.67,479.92,-76.77,-210.21,3
13475,11.25,-19.65,-13.41,407.12,-65.25,-236.97,3
13499,10.99,-19.65,-18.66,291.45,-40.74,-246.91,3
13525,8.97,-19.65,-19.22,133.52,-141.53,-251.24,3
13549,9.56,-19.1,-19.22,-24.4,-109.33,-248.68,3
13575,10.5,-18.58,-13.57,-129.22,-61.16,-266.49,3
13599,11.18,-18.44,-9.46,-192.69,-22.26,-307.95,3
13625,10.43,-18.24,-6.66,-216.11,23.9,-355.69,3
13650,7.74,-16.84,-5.37,-212.02,91.28,-389.84,3
13675,5.2,-14.37,-5.23,-193.79,103.59,-385.75,3
13700,2.84,-11.16,-6.41,-182.39,51.82,-346.67,3
13724,0.82,-8.19,-7.46,-195.25,6.82,-287.71,3
13750,-0.78,-6.19,-7.98,-221.41,8.53,-229.48,3
13775,-1.97,-5.58,-8.01,-255.31,35.79,-181.37,3
13799,-0.5,-5.1,-8.31,-296.17,61.82,-134.48,3
13825,-1.31,-6.05,-8.12,-354.22,62.92,-94.29,3
13849,-0.55,-8.4,-5.44,-413.54,52.5,-62.22,3
13874,0.02,-10.67,-2.19,-455.37,53.59,-35.45,3
13899,0.61,-13.41,0.43,-482.39,27.13,-6.61,3
13924,1.9,-14.86,2.05,-500.8,-39.33,34.61,3
13949,5.35,-15.69,4.03,-508.54,-136.47,83.75,3
13974,10.58,-16.37,5.08,-496.53,-227.01,104.61,3
13999,14.8,-17.28,5.56,-510.68,-172.56,65.34,3
14024,18.6,-19.32,7.01,-528.54,-83.54,-22.4,3
14049,18.6,-19.65,8.39,-510.62,-113.36,-84.23,3
14074,18.44,-19.65,10.68,-475.13,-169.09,-117.65,3
14099,18.6,-18.79,11.45,-428.61,-229.58,-134.72,3
14125,18.6,-16.49,12.24,-369.95,-131.41,-150.76,3
14149,18.6,-14.25,13.71,-293.91,-86.41,-184.72,3
14175,18.6,-10.34,14.03,-214.77,-194.58,-211.67,3
14200,18.6,-8.49,13.44,-146.35,-168.54,-232.71,3
14225,16.47,-6.65,12.1,-78.37,-88.42,-256.73,3
14250,14.55,-4.69,10.71,-16.35,-69.52,-283.01,3
14274,11.7,-5.35,9.23,47.55,-64.15,-306.43,3
14300,8.14,-4.4,6.88,95.96,-81.41,-306.79,3
14324,6.56,-4.2,5.85,132.36,-83.05,-295.33,3
14349,4.92,-4.38,5.11,172.18,-60.98,-279.41,3
14375,3.67,-4.57,4.21,216.69,-76.22,-260.33,3
14399,1.74,-4.53,2.7,252,-106.59,-240.82,3
14425,0.9,-3.92,2.02,276.75,-76.22,-219.29,3
14449,1.71,-6.73,2.14,308.58,-13.66,-199.96,3
14474,1.51,-7.39,1.05,347.91,15.48,-180.76,3
14500,2.35,-7.71,0.02,382.18,54.93,-161.06,3
14524,6.71,-12.96,0.55,419.01,136.95,-133.2,3
14549,9.32,-15.5,-0.83,461.14,53.71,-110.15,3
14574,9.12,-16.59,-0.89,485.96,-91.22,-131.92,3
14599,8.53,-19.65,-0.93,491.87,-31.59,-177.34,3
14624,9.93,-19.65,-2.1,503.15,122.19,-186.61,3
14649,12.43,-19.65,-4.57,505.84,107.49,-173.8,3
14674,11.19,-19.65,-7.45,485.23,35.85,-177.59,3
14699,13.18,-19.65,-11.35,432.97,-15.92,-201.73,3
14724,12.07,-19.65,-17.66,325.78,-87.5,-229.35,3
14749,10.44,-19.65,-19.22,171.63,-146.83,-238.32,3
14774,9.54,-18.43,-18.43,15.23,-133.42,-235.82,3
14800,10.32,-17.66,-12.53,-94.65,-114.82,-241.49,3
14824,9.92,-16.9,-8.1,-152.45,-78.05,-261.43,3
14850,8.7,-15.34,-5.92,-167.63,-23.17,-287.1,3
14874,6.63,-12.98,-5.25,-168.43,0.18,-302.34,3
14900,4.26,-11.27,-5.54,-171.35,28.71,-299.84,3
14925,3.31,-9.1,-6.21,-178.12,40.48,-278.32,3
14949,1.49,-7.09,-7.32,-192.08,1.34,-241.49,3
14975,-0.19,-5.97,-7.55,-219.83,-18.97,-199.48,3
14999,-0.82,-5.1,-7.74,-257.08,1.28,-152.22,3
15024,-1.15,-5.21,-7.17,-300.86,-18.3,-103.38,3
15049,-1.28,-5.96,-5.95,-342.57,-12.32,-60.33,3
15074,-0.1,-7.19,-4.39,-376.9,28.65,-24.36,3
15099,0.27,-8.69,-2.69,-413.06,37.56,4.85,3
15124,1.16,-10.49,-0.25,-444.89,9.45,34.73,3
15149,2.07,-12.42,1.62,-461.72,-11.59,67.11,3
15173,3.07,-14.31,2.61,-477.26,-21.28,96.07,3
15199,5.3,-17.36,3.84,-499.76,-17.5,127.66,3
15224,10.47,-18.43,6,-513.97,-13.17,133.94,3
15248,16.22,-18.58,8.25,-503.79,-29.64,97.23,3
15274,18.6,-18.43,8.69,-489.21,-61.53,31.86,3
15298,18.6,-18.42,9.46,-473.06,-87.14,-30.88,3
15324,18.6,-18.22,11.17,-439.89,-96.77,-85.82,3
15348,18.6,-16.79,12.49,-386.17,-97.75,-131.24,3
15373,18.6,-15.3,12.31,-326.59,-112.08,-172.77,3
15399,18.6,-13.68,12.25,-275.8,-95.19,-218.38,3
15424,18.6,-12.02,13.32,-215.8,-108.48,-252.34,3
15449,18.26,-10.45,13.71,-155.01,-152.81,-282.95,3
15474,15.93,-8.42,12.88,-97.88,-161.1,-307.22,3
15499,12.25,-6.44,11.38,-45.56,-132.02,-323.13,3
15525,9.06,-5.31,9.84,3.83,-88.24,-328.44,3
15549,6.63,-6.13,8.72,57,-51.1,-316.79,3
15574,4.56,-4.52,7.44,107.18,-51.65,-289.17,3
15598,2.9,-2.94,6.25,155.6,-75.13,-258.62,3
15624,2.16,-2.8,5.38,199.19,-77.32,-229.72,3
15648,1.92,-3.63,4.57,239.13,-76.89,-207.34,3
15673,0.93,-4.17,3.47,276.94,-66.89,-193.87,3
15699,1.12,-4.94,2.5,308.95,-18.97,-181.67,3
15723,1.79,-6.79,1.82,345.35,32.74,-162.34,3
15749,2.86,-7.77,1.33,385.17,59.2,-139.41,3
15773,5.28,-11.33,1.59,431.81,57.68,-126.55,3
15798,9.31,-17.02,0.93,480.84,26.46,-126.73,3
15824,8.99,-18.84,-2.34,509.56,-106.34,-139.35,3
15848,4.2,-19.65,-5.82,488.82,-222.56,-184.29,3
15874,6.65,-19.65,-6.03,445.35,-61.65,-227.04,3
15898,9.48,-19.65,-6.02,443.28,67.86,-241.73,3
15923,7.29,-19.65,-8.22,430.53,-62.26,-253.13,3
15949,8.92,-19.65,-9.88,383.4,-51.71,-274.78,3
15973,9.88,-19.65,-13.39,338.09,60.73,-282.52,3
15999,7.53,-19.65,-16.92,250.35,-95.55,-282.71,3
16023,7.86,-19.65,-18.64,115.78,-108.66,-276.24,3
16049,8.33,-19.23,-16.48,-9.89,-70.25,-266.06,3
16073,8.84,-18.65,-12.85,-106.84,-104.33,-265.69,3
16098,8.53,-18.06,-9.75,-171.47,-81.28,-275.02,3
16124,7.15,-16.58,-7.54,-201.78,-25.98,-288.5,3
16148,4.92,-14.56,-6.65,-215.74,-1.35,-295.39,3
16174,4.13,-12.34,-6.36,-222.14,65.79,-291.91,3
16198,3.02,-10.53,-6.36,-225.8,47.19,-269.9,3
16223,1.39,-8.7,-6.84,-237.94,-12.93,-230.33,3
16249,-0.01,-7.65,-8.02,-262.14,-12.26,-184.66,3
16273,-0.85,-6.51,-8.6,-306.35,30.36,-143.68,3
16298,0.41,-7.23,-7.31,-349.64,43.47,-100.57,3
16323,0.55,-8.47,-6.14,-393.3,8.53,-63.5,3
16348,1.24,-10.33,-4.69,-440.74,2.68,-34.54,3
16372,1.74,-12.99,-2.68,-490.68,1.64,-11.37,3
16398,2.17,-15.57,-0.28,-537.14,9.26,6.99,3
16423,4,-17.56,2.49,-564.03,17.98,21.56,3
16447,5.58,-17.98,5.12,-564.95,-45,46.38,3
16473,8.73,-19.65,7.08,-546.41,-183.36,81.62,3
16497,10.6,-19.65,6.78,-538.85,-256.83,100.34,3
16522,16.04,-19.65,7.32,-551.71,-47.26,56.5,3
16548,18.6,-19.65,9.36,-550.8,44.32,-39.66,3
16572,18.6,-19.39,14.03,-498.18,-18.6,-101.37,3
16598,18.6,-16.48,17.58,-405.86,-97.56,-151.61,3
16622,18.6,-12.89,17.24,-303.42,-124.88,-195.82,3
16648,18.6,-12.3,14.68,-215.44,-114.88,-227.83,3
16672,18.15,-12.33,12.74,-157.63,-161.34,-251.79,3
16698,16.92,-10.61,12.43,-112.45,-148.23,-274.29,3
16723,15.56,-8,11.68,-59.95,-90.13,-298.99,3
16748,11.93,-5.32,10.03,2.73,-112.99,-313.44,3
16773,9.64,-5.99,8.52,50.35,-155.98,-314.6,3
16797,7.35,-5.66,6.98,77,-109.7,-311,3
16823,6.74,-5.78,7.05,111.39,-34.09,-301.24,3
16848,4.45,-4.75,6.11,162.49,-47.75,-284.78,3
16873,2.15,-3.47,5,200.78,-59.82,-259.47,3
16898,1.54,-2.82,4.33,235.17,-29.21,-228.62,3
16922,1.1,-4.6,3.88,274.62,-2.5,-197.04,3
16947,0.69,-3.9,2.56,316.51,12.92,-164.78,3
16973,1.74,-4.4,1.74,360.84,30.67,-130.15,3
16997,4.07,-8.25,1.66,414.5,13.17,-103.81,3
17022,5.35,-12.99,0.83,464.13,-56.71,-107.16,3
17047,4.1,-14.67,-1.23,490.53,-83.6,-136.61,3
17072,6.73,-18.09,-1.82,498.64,13.41,-160.94,3
17097,7.85,-19.65,-2.44,495.35,42.68,-171.49,3
17122,7.67,-19.65,-3.06,487.18,-7.32,-191.55,3
17147,7.28,-19.65,-5.09,473.52,19.39,-204.78,3
17172,9.66,-19.65,-5.69,451.26,45.3,-200.21,3
17197,10.28,-19.65,-6.84,430.29,23.04,-190.82,3
17222,11.22,-19.65,-10.7,387.61,-37.2,-188.87,3
17247,12.04,-19.65,-14.26,305.05,-78.6,-189.11,3
17273,10.63,-19.65,-15.51,189.19,-154.76,-190.63,3
17297,9.14,-19.65,-15.48,60.84,-184.76,-192.83,3
17323,9.25,-18.88,-13.95,-60.44,-154.03,-212.04,3
17347,9.2,-18.73,-10.29,-138.97,-48.91,-248.87,3
17373,9.2,-18.02,-7.74,-173.79,13.78,-290.75,3
17397,8.2,-16.3,-6.57,-186.11,34.87,-318.93,3
17422,6.42,-14.72,-5.84,-192.82,25.48,-326.79,3
17448,4.19,-12.41,-5.83,-205.32,17.07,-316.79,3
17472,3.32,-10.13,-6.03,-219.77,55.97,-296.79,3
17498,1.74,-8.39,-5.66,-229.16,49.81,-270.51,3
17522,0.86,-6.81,-4.89,-241.72,30.91,-234.11,3
17547,1.19,-5.27,-3.84,-259.16,49.81,-199.84,3
17573,1.01,-5,-2.95,-270.38,40.24,-169.66,3
17597,0.27,-4.08,-2.85,-286.53,22.13,-135.88,3
17622,1,-3.81,-1.15,-308.79,26.82,-101.55,3
17647,1.77,-4.21,-0.16,-319.22,-14.15,-63.38,3
17672,1.51,-4.97,-0.16,-333.85,-60.55,-27.16,3
17696,1.89,-5.78,-0.48,-369.22,-50.19,-3.26,3
17722,3.15,-7.56,1.22,-403.67,-8.36,9.06,3
17747,4.35,-10.13,2.76,-430.07,-42.87,17.66,3
17771,4.62,-13.04,4.23,-460.68,-86.16,40.34,3
17796,7.48,-14.68,6.54,-482.63,-123.17,76.31,3
17821,11.79,-16.7,10.1,-480.43,-155.61,93.75,3
17846,17.1,-15.52,12.7,-454.34,-166.28,63.14,3
17872,18.6,-14.08,14.52,-415.62,-83.24,-16.31,3
17896,18.6,-14.5,15.84,-354.89,-63.3,-93.56,3
17922,18.6,-13.67,14.71,-281.41,-95.98,-141.37,3
17946,18.6,-11.73,11.62,-231.35,-154.58,-164.66,3
17972,18.6,-11.95,9.63,-201.6,-151.71,-190.63,3
17997,18.6,-11.34,9.24,-182.08,-187.44,-223.87,3
18022,17.54,-10.56,9.12,-165.8,-270.73,-253.07,3
18047,16.77,-9.82,9.31,-148.73,-245.18,-270.57,3
18072,14.45,-9.22,10.36,-116.9,-246.65,-280.69,3
18097,11.71,-6.46,10.26,-84.95,-250.25,-290.21,3
18122,9.25,-4.96,9.67,-44.34,-189.09,-291.91,3
18147,7.41,-3.73,9.33,6.63,-98.6,-290.02,3
18172,5.86,-2.84,8.35,68.77,-37.38,-284.35,3
18197,4.45,-2.45,6.81,128.4,-45.25,-268.26,3
18222,2.43,-2.21,5.02,175.11,-46.65,-254.05,3
18246,1.73,-2.76,3.96,218.89,19.81,-238.38,3
18272,2.46,-5.33,3.09,266.94,46.21,-218.62,3
18297,1.07,-4.73,1.52,304.86,-39.33,-197.65,3
18321,0.66,-6.26,0.89,334.92,-66.28,-189.9,3
18347,0.22,-9.33,0.7,363.95,-45.13,-191,3
18371,0.94,-11.26,-0.38,390.11,22.68,-188.87,3
18396,3.28,-12.78,-0.89,416.87,38.41,-176.06,3
18421,2.27,-16.32,-0.7,439.19,-45.13,-176.24,3
18446,2.59,-18.53,-0.88,451.87,-58.66,-190.69,3
18472,3.65,-19.65,-1.89,456.45,20.3,-194.17,3
18496,4.56,-19.65,-3.3,459.37,28.17,-184.35,3
18521,5.82,-19.65,-4.66,445.53,6.82,-181.37,3
18546,7.07,-19.65,-6.77,422.85,-12.5,-190.94,3
18571,7.29,-19.65,-11.72,372.12,-17.93,-186.61,3
18596,7.01,-19.65,-15.89,278.46,-93.17,-179.78,3
18621,5.72,-19.65,-17.41,152.79,-136.77,-172.46,3
18646,6.62,-18.64,-16.83,17.43,-125.55,-163.26,3
18671,8.01,-18.37,-13.29,-85.44,-117.63,-167.1,3
18696,8.85,-18.75,-9.96,-153.85,-105.49,-189.78,3
18722,9.27,-19.44,-8.15,-198.49,-31.04,-230.15,3
18746,9.66,-18.64,-7.22,-223.85,29.51,-277.52,3
18772,9.01,-17.9,-6.65,-233.18,58.96,-320.57,3
18796,7.23,-17.21,-5.76,-242.02,59.14,-353.99,3
18821,6.28,-15.62,-5.64,-241.53,74.93,-366.12,3
18846,3.77,-13.49,-5.62,-239.03,74.81,-354.47,3
18871,2.01,-11.03,-6.09,-245.68,46.52,-324.96,3
18897,1.24,-8.81,-6.07,-265.99,46.89,-288.38,3
18921,0.36,-7.48,-5.8,-290.8,35.24,-246.37,3
18946,-0.36,-6.55,-4.56,-316.59,15.18,-198.87,3
18971,-0.17,-6.55,-3.27,-342.63,-14.64,-150.82,3
18996,0.39,-7.03,-2.26,-368,-54.03,-100.7,3
19021,0.83,-7.77,-1.22,-393.85,-94.09,-54.29,3
19046,1.13,-10.01,0,-422.87,-131.16,-9.05,3
19071,1.2,-10.92,0.97,-450.13,-178.3,45.22,3
19095,2.8,-13.52,3.02,-460.86,-220.37,102.47,3
19121,5.36,-14.19,4.97,-455.8,-251.47,156.19,3
19145,9.07,-12.62,6.87,-422.45,-344.64,202.29,3
19171,13.76,-11.5,8.08,-372.94,-403.23,219.36,3
19196,17.55,-11.92,7.15,-322.2,-332.68,194.18,3
19221,18.6,-11.95,4.99,-274.95,-155.06,149.67,3
19246,18.6,-13.2,3.61,-231.84,-24.09,113.02,3
19271,18.6,-13.14,1.98,-208.97,4.69,74.91,3
19296,18.6,-12.3,1.04,-220.38,24.26,22.41,3
19321,18.6,-11.76,2.71,-244.4,-0.37,-47.95,3
19346,18.6,-10.15,5.66,-247.02,-82.63,-124.78,3
19371,18.6,-9.34,7.96,-219.77,-137.87,-196.91,3
19395,18.6,-8.88,8.92,-182.21,-189.94,-256.24,3
19421,17.97,-9.01,8.84,-149.83,-242.44,-296.85,3
19445,14.09,-8.92,8.8,-128.61,-266.16,-325.08,3
19471,11.53,-7.17,8.36,-102.33,-180.06,-351.79,3
19496,8.77,-5.39,8.49,-50.87,-93.11,-370.51,3
19521,5.52,-7.44,8.19,19.13,-60.86,-378.19,3
19546,2.1,-5.32,7.19,85.41,-88.42,-358.86,3
19570,-0.01,-3.35,5.85,133.83,-106.1,-327.04,3
19596,-1.22,-2.8,4.99,188.1,-2.44,-298.74,3
19621,-0.69,-4.77,4.44,249.68,98.04,-271.85,3
19645,-0.43,-6.93,3.21,319.19,133.96,-232.34,3
19671,-0.04,-7.49,2.35,371.14,92.49,-189.96,3
19695,2.6,-11.54,2.22,418.09,85.85,-164.78,3
19720,6.2,-15.15,2.17,462.36,147.13,-152.04,3
19746,9.75,-17.97,1.03,500.84,132.68,-143.56,3
19770,11.14,-19.65,0.79,526.32,78.29,-152.83,3
19796,10.89,-19.65,0.02,537.06,-30.25,-196.43,3
19820,10.84,-19.65,-2.02,537.85,37.13,-244.23,3
19845,15.85,-19.65,-3.23,539.25,171.7,-252.95,3
19870,15.49,-19.65,-7.94,519.13,96.03,-250.45,3
19895,13.83,-19.65,-13.99,437.42,-37.93,-265.45,3
19921,13.51,-19.65,-18.9,294.62,-84.52,-275.02,3
19945,11.68,-19.65,-18.88,112.67,-149.21,-271.73,3
19971,10.75,-19.65,-15.71,-47.88,-182.93,-279.47,3
19995,11.98,-19.65,-10.97,-156.66,-118.3,-297.04,3
20021,11.19,-18.47,-6.19,-210.07,-60.86,-314.84,3
20046,9.65,-16.02,-3.75,-219.46,-39.64,-327.71,3
20071,6.81,-13.33,-2.62,-215.5,-34.94,-321.24,3
20096,5.28,-10.81,-1.9,-205.93,0.91,-301.18,3
20121,4.16,-8.52,-2.54,-192.57,44.75,-280.21,3
20146,2.92,-6.57,-3.42,-189.95,43.96,-262.46,3
20170,2.19,-5.72,-3.74,-198,8.65,-234.35,3
20196,0.91,-4.76,-5.35,-220.99,-25.19,-196.67,3
20221,-0.18,-4.3,-5.58,-265.99,-39.39,-156.61,3
20245,1.16,-4.93,-4.6,-314.83,3.78,-119.29,3
20271,1.25,-6.35,-3.36,-353.85,-8.11,-88.26,3
20295,1.74,-8.04,-2.54,-396.53,-47.75,-63.26,3
20320,1.58,-10.41,-1.4,-443.3,-92.56,-34.05,3
20346,1.49,-12.99,0.41,-483.79,-86.95,1.01,3
20370,3.22,-16.41,2.41,-512.93,-64.15,28.45,3
20395,5.31,-19.02,4.03,-531.17,-72.56,50.28,3
20420,9.56,-19.65,5.48,-539.64,-138.3,77.78,3
20445,13.42,-19.65,6.82,-553.54,-217.93,92.59,3
20469,18.6,-19.65,9.7,-565.92,-116.89,45.16,3
20495,18.6,-19.65,14.09,-537.02,19.08,-81,3
20520,18.6,-19.65,17.28,-457.81,-15.86,-184.05,3
20545,18.6,-19.63,19.98,-349.03,-104.09,-228.13,3
20570,18.6,-17.44,19.36,-264.28,-194.94,-254.66,3
20595,18.6,-15.53,16.54,-188.97,-148.72,-273.26,3
20620,16.74,-14.77,14.49,-132.51,-123.05,-297.71,3
20646,15.54,-12.2,13.39,-95.32,-186.28,-314.29,3
20670,12.6,-9.02,12.04,-54.83,-123.6,-321.49,3
20696,9.47,-8.34,10.56,-5.99,-72.32,-324.6,3
20720,7.6,-6.51,9.51,46.94,-40.49,-316,3
20745,4.95,-4.16,8.01,88.52,-69.33,-295.33,3
20771,4.21,-3.22,6.96,130.17,-33.24,-268.62,3
20795,2.82,-3.4,6.02,176.08,-24.39,-242.1,3
20820,1.18,-2.88,4.35,215.78,-54.27,-213.19,3
20845,0.3,-1.24,3.21,242.61,-47.75,-183.99,3
20870,0.45,-2.93,2.9,272.91,-15.8,-158.56,3
20894,0.71,-4.67,1.8,312.42,14.45,-132.4,3
20920,0.6,-4.79,0.49,347.06,9.63,-104.29,3
20945,1.3,-5.61,0.52,377.73,4.51,-84.05,3
20969,3.83,-11.17,0.53,413.15,4.02,-77.77,3
20995,4.61,-12.52,-0.66,446.08,-4.82,-79.42,3
21019,5.96,-15.63,-0.3,472.91,-0.92,-86.85,3
21044,6.94,-19.65,-0.03,505.29,-0.98,-100.82,3
21069,9.02,-19.65,-0.69,532.91,4.32,-116.67,3
21094,8.51,-19.65,-2.76,541.93,-55.8,-141.55,3
21119,8.66,-19.65,-5.28,526.57,-37.5,-166.43,3
21144,11.34,-19.65,-7.93,495.41,-10.19,-188.38,3
21169,11.25,-19.65,-14.09,430.35,-57.93,-209.23,3
21194,9.96,-19.65,-19.22,297.12,-155.61,-227.04,3
21219,8.17,-19.65,-19.22,119.25,-164.82,-233.56,3
21245,8.33,-19.65,-16.97,-41.66,-145.49,-239.11,3
21269,8.53,-19.38,-12.16,-143.91,-98.78,-258.68,3
21294,8.35,-18.38,-8.53,-195.56,-5.61,-289.35,3
21319,7.96,-16.49,-6.68,-211.9,32.62,-314.41,3
21344,6.6,-14.51,-6.16,-215.99,45.73,-324.96,3
21370,4.47,-12.72,-5.21,-221.53,52.92,-326.79,3
21394,4.08,-10.5,-5.15,-225.86,85.67,-315.21,3
21419,2.44,-9.1,-5.33,-227.14,78.23,-296.73,3
21444,1.73,-7.42,-5.63,-239.52,77.56,-276.73,3
21469,0.8,-6.38,-5.76,-264.58,77.92,-250.39,3
21493,-0.35,-5.93,-5.15,-300.68,60.67,-215.21,3
21519,-0.17,-6.15,-3.18,-329.95,86.09,-182.16,3
21544,-0.61,-6.59,-2.67,-350.98,82.31,-152.52,3
21569,-0.12,-6.54,-1.97,-379.64,27.74,-119.96,3
21594,0.36,-8.91,-0.26,-410.13,-32.99,-79.54,3
21618,0.75,-10.83,1.26,-435.56,-100.49,-29.6,3
21644,2.22,-14.12,2,-462.08,-140.61,23.27,3
21669,4.95,-16.09,2.23,-495.31,-172.99,66.92,3
21693,8.68,-19.65,3.68,-531.84,-143.11,83.08,3
21719,14.31,-19.65,6.67,-560.8,-52.56,25.95,3
21743,18.6,-19.65,9.88,-558.54,16.4,-82.77,3
21769,18.6,-19.65,13.36,-514.4,-57.2,-148.44,3
21794,18.6,-19.65,16.35,-442.93,-167.75,-184.29,3
21819,18.6,-18.22,16.99,-369.76,-153.42,-216.49,3
21844,18.6,-18.13,16.41,-276.23,-71.04,-244.05,3
21869,17.66,-17.48,15.07,-205.56,-158.78,-258.68,3
21894,17.52,-13.7,14.08,-169.95,-245.06,-261.3,3
21919,17.08,-9.98,13.92,-121.54,-137.87,-274.05,3
21944,16.07,-8.93,13.67,-54.77,-75.37,-293.5,3
21970,11.56,-7.37,11.83,14.62,-95.37,-301.55,3
21994,9.93,-5.18,8.94,63.46,-157.93,-291.97,3
22019,7.9,-3.53,6.65,94.62,-127.75,-283.07,3
22044,6.87,-4.22,6.19,132.18,-56.35,-278.99,3
22069,4.25,-4.25,5.15,171.39,-57.44,-276.18,3
22094,2.52,-3.79,4.22,206.88,-20.31,-260.33,3
22119,1.77,-3.73,3.63,243.52,-13.97,-234.72,3
22144,1.02,-5.17,2.99,277.12,-5.49,-210.27,3
22168,0.42,-6.1,2.07,311.02,24.45,-184.05,3
22194,1.03,-4.64,1.17,342.42,55.97,-150.94,3
22218,2.78,-7.1,1.48,377.73,58.29,-121.12,3
22243,4.4,-11.47,1.35,418.4,68.29,-101.55,3
22269,5.44,-13.07,-0.07,446.69,18.04,-89.11,3
22293,5.2,-14.69,-0.57,464.5,-39.88,-92.95,3
22318,6.96,-18.15,-0.62,484.86,13.04,-109.72,3
22343,9.5,-19.65,-0.99,502.67,104.57,-113.44,3
22368,10.49,-19.65,-3.14,510.65,70.3,-117.83,3
22394,11.56,-19.65,-5.62,501.38,40.85,-120.88,3
22418,12.57,-19.65,-8.47,469.98,-50.43,-139.29,3
22444,11.43,-19.65,-13.4,398.09,-131.34,-162.46,3
22468,9.68,-19.65,-16.53,277,-172.2,-186.37,3
22494,8.94,-19.65,-17.46,136.94,-132.44,-200.63,3
22519,8.35,-18.25,-15.23,8.59,-136.89,-217.4,3
22543,8.25,-17.98,-12.17,-80.99,-115,-245.33,3
22569,7.55,-17.45,-9.43,-135.74,-16.53,-275.02,3
22593,6.9,-16.26,-7.89,-162.75,31.4,-296.36,3
22619,5.59,-14.24,-7.86,-179.52,36.95,-300.27,3
22643,5.1,-12.59,-7.96,-199.83,45.48,-288.74,3
22669,4.19,-10.74,-8.03,-225.32,27.01,-275.33,3
22694,2.64,-9.21,-8.16,-256.96,6.7,-255.33,3
22718,1.96,-8.19,-7.59,-289.03,34.63,-230.33,3
22744,1.73,-7.36,-6.33,-319.83,66.46,-212.52,3
22768,1.03,-7.12,-4.91,-349.03,54.26,-192.77,3
22793,0.75,-6.9,-3.19,-377.63,33.96,-162.65,3
22819,0.73,-7.12,-1.83,-399.28,33.65,-128.99,3
22843,0.27,-8.26,-0.25,-417.94,9.26,-98.68,3
22868,0.67,-9.34,1.35,-435.56,-12.08,-63.32,3
22893,1.2,-10.78,2.59,-449.58,-44.46,-21.49,3
22918,2.23,-11.7,3.34,-455.98,-115.49,29.12,3
22942,4.34,-13.84,4.51,-457.57,-206.83,92.53,3
22968,6.42,-16.76,4.62,-465.37,-224.82,142.78,3
22993,8.89,-17.38,5.59,-481.71,-118.3,143.87,3
23018,14.23,-16.11,8.24,-492.45,47.25,76.19,3
23043,18.6,-15.96,10.97,-448.97,110.42,2.72,3
23067,18.6,-16.19,12.32,-372.87,-0.92,-63.5,3
23093,18.6,-15.79,13.27,-320.56,-73.05,-127.04,3
23118,18.6,-16.21,12.94,-274.46,-152.75,-168.8,3
23143,18.6,-18.08,12.53,-240.5,-168.66,-195.51,3
23168,18.6,-16.58,11.11,-215.07,-146.53,-228.32,3
23193,18.1,-13.82,9.85,-189.46,-149.15,-259.05,3
23218,16.26,-10.54,10.84,-148.36,-146.65,-290.51,3
23243,13.05,-9.26,10.59,-107.33,-149.7,-307.83,3
23268,10.43,-7.63,9.16,-61.78,-116.59,-309.78,3
23294,8.27,-5.41,7.68,-21.66,-102.99,-304.84,3
23318,5.65,-3.54,6.83,16.57,-64.64,-293.99,3
23343,4.84,-2.57,6.26,59.32,-20.43,-274.41,3
23368,4.28,-1.7,5.66,108.52,-30.07,-252.71,3
23393,2.74,-1.42,4.39,149.86,-49.7,-233.19,3
23418,1.17,-0.5,3.41,181.02,-11.83,-212.77,3
23443,1.41,-0.34,3.39,220.29,46.52,-185.57,3
23468,1.23,-1.68,2.88,270.23,57.8,-154.17,3
23492,1.78,-2.69,2.17,320.59,61.15,-123.62,3
23518,2.6,-4.59,1.07,369.74,28.84,-97.28,3
23543,2.57,-7.55,0.29,406.26,-30.67,-84.35,3
23567,3.13,-9.91,-0.42,432.06,-36.35,-80.76,3
23593,2.99,-12.26,-0.63,452.67,-38.11,-91.06,3
23617,2.63,-15.81,-0.84,467.24,1.7,-99.23,3
23642,4.11,-17.08,-1.36,479.92,55.12,-90.88,3
23667,6.29,-19.65,-1.53,490.04,44.26,-74.17,3
23692,7.83,-19.65,-3.27,501.2,4.57,-73.14,3
23717,8.99,-19.65,-4.72,495.78,-42.2,-83.38,3
23742,9.62,-19.65,-7.26,468.82,-107.44,-111.73,3
23767,10.91,-19.65,-11.83,416.2,-122.02,-149.6,3
23792,9.58,-19.65,-16.48,309.5,-173.36,-184.41,3
23817,7.86,-19.65,-18.95,161.39,-174.94,-210.57,3
23843,6.86,-19.48,-17.04,13.22,-167.87,-220.51,3
23867,6.76,-19.13,-12.83,-98.91,-140.19,-228.19,3
23893,6.54,-18.73,-9.13,-165.25,-70.25,-250.51,3
23917,6.49,-17.94,-7.42,-201.05,6.28,-285.63,3
23942,5.9,-16.4,-6.15,-211.78,61.34,-317.95,3
23967,4.6,-14.34,-5.72,-209.03,98.47,-331.85,3
23992,3.61,-12.24,-6.2,-204.77,110.97,-332.4,3
24018,2.99,-9.77,-6.8,-209.52,116.03,-319.96,3
24042,1.74,-8.06,-7.18,-224.95,86.82,-296.49,3
24067,0.53,-6.7,-6.78,-249.71,77.49,-265.21,3
24092,0.41,-5.71,-5.68,-280.38,93.84,-232.34,3
24117,0.36,-5.25,-4.36,-306.59,92.98,-201,3
24142,-0.06,-5.11,-3.11,-329.89,65.97,-168.5,3
24167,-0.49,-5.17,-1.49,-351.23,51.03,-132.4,3
24192,-0.48,-5.92,-0.43,-372.2,33.17,-97.53,3
24216,0,-7.27,0.71,-395.07,12.13,-63.07,3
24242,0.22,-8.56,1.54,-418.61,-25.74,-26.92,3
24266,1.07,-11.04,2.6,-439.4,-79.52,19.24,3
24291,3.93,-15.01,4.21,-466.17,-106.04,68.51,3
24317,7.92,-16.45,6.77,-491.84,-133.48,107.17,3
24341,14.76,-17.66,10.17,-490.37,-162.81,95.52,3
24367,18.6,-14.41,13.56,-467.75,-68.17,-1.67,3
24391,18.6,-16.22,14.58,-427.87,-17.32,-115.21,3
24416,18.6,-17.3,14.7,-367.75,-67.56,-171.61,3
24442,16.65,-15.75,14.47,-307.02,-93.84,-201,3
24466,17.79,-15.39,12.95,-267.45,-104.76,-229.29,3
24492,18.07,-13.72,12.42,-220.38,-55.61,-246.24,3
24516,14.84,-11.23,13.03,-175.68,-163.91,-257.22,3
24542,14.71,-10.04,13.32,-144.04,-198.23,-269.9,3
24568,13.49,-8.38,13.44,-95.93,-101.1,-285.82,3
24592,10.32,-8.19,12.61,-35.56,-82.81,-294.41,3
24617,8.74,-5.22,11.32,19.93,-76.22,-289.96,3
24642,6.09,-3.47,9.15,72.12,-81.77,-275.94,3
24667,4.93,-2.36,7.5,111.82,-78.72,-257.22,3
24691,3.57,-1.99,6.23,147.3,-55.74,-240.51,3
24717,2.59,-1.54,5.47,180.35,-34.76,-221.3,3
24742,1.67,-1.82,4.8,216.14,-31.77,-199.41,3
24766,0.48,-2.3,3.9,249.99,-16.16,-174.96,3
24792,0.01,-2.43,2.94,281.33,21.82,-144.96,3
24816,0.23,-3.02,1.93,314.07,35.48,-108.62,3
24841,0.52,-4.04,1.3,343.89,31.76,-72.1,3
24867,1.37,-5.61,1.1,375.9,38.9,-42.04,3
24891,2.67,-8.75,0.98,407.3,33.23,-19.17,3
24916,4.68,-11.22,0.42,442.91,49.39,-3.93,3
24941,7.19,-14.17,0.42,474.8,36.58,3.21,3
24966,7.71,-18.31,0.77,504.56,-6.28,-9.9,3
24990,9.42,-19.65,0.21,529.31,15.36,-32.77,3
25015,11.63,-19.65,-1.41,545.77,55.36,-45.82,3
25041,13.36,-19.65,-3.44,549.31,-13.24,-54.84,3
25065,12.21,-19.65,-5.32,525.9,-140,-83.38,3
25091,10.95,-19.65,-9.67,453.15,-206.71,-139.05,3
25115,10.86,-19.65,-12.94,342.36,-160.67,-183.93,3
25141,9.66,-19.65,-15.7,218.28,-136.71,-214.29,3
25166,8.57,-19.65,-16.14,85.84,-127.2,-238.5,3
25191,7.73,-18.51,-14.04,-32.15,-121.53,-254.96,3
25216,7.54,-17.48,-11.32,-113.3,-78.85,-261.67,3
25241,7.38,-16.29,-8.54,-161.54,-29.21,-268.99,3
25266,6.81,-14.86,-6.97,-189.1,-14.21,-279.72,3
25290,6.09,-13,-6.55,-203.12,38.17,-291.24,3
25316,4.45,-11.38,-6.3,-207.51,44.93,-295.51,3
25341,3.1,-9.45,-6.16,-218.61,34.87,-286.24,3
25366,1.95,-7.89,-6.85,-242.33,54.75,-266.85,3
25391,1.08,-6.68,-6.58,-265.74,87.49,-247.95,3
25415,0.94,-5.91,-5.19,-288.73,94.51,-228.01,3
25441,0.52,-5.66,-3.75,-313.42,70.36,-202.04,3
25466,0.13,-6.22,-2.42,-338.55,61.58,-171,3
25490,-0.15,-5.67,-1.67,-361.41,46.34,-139.41,3
25516,0.4,-6.3,0.08,-379.76,18.78,-105.51,3
25540,0.22,-7,1.45,-393.12,25.06,-79.96,3
25565,1.98,-8.73,2.62,-406.35,67.01,-73.07,3
25591,3.64,-10.14,3.16,-426.11,23.35,-72.16,3
25615,4.16,-12.03,4.75,-453.54,-56.77,-57.53,3
25640,5.79,-13.16,7.65,-469.95,-132.81,-41.37,3
25665,8.83,-15.97,11.18,-468.97,-173.84,-38.01,3
25690,13.24,-15.83,13.44,-445.8,-188.3,-47.53,3
25715,16.19,-15.49,14.5,-411.35,-202.5,-61.06,3
25740,18.6,-14.8,14.6,-364.89,-171.89,-90.45,3
25766,18.6,-13.36,14.12,-314.09,-148.6,-135.09,3
25790,18.16,-13.94,13.13,-262.33,-118.97,-172.59,3
25816,17.77,-12.96,11.52,-216.53,-88.48,-190.27,3
25840,17.39,-11.91,11.67,-174.34,-76.41,-202.46,3
25866,16.62,-10.05,11.95,-134.34,-101.89,-223.32,3
25891,15.59,-8.39,12.18,-93.24,-112.02,-247.1,3
25916,13.97,-6.98,11.75,-48.18,-96.77,-271.91,3
25941,11.57,-6.13,11.2,-1.66,-86.34,-285.51,3
25965,9.66,-6.22,10.16,48.16,-89.03,-290.39,3
25991,7.47,-4.65,8.6,90.41,-98.78,-282.95,3
26015,5.7,-3.42,7.19,126.63,-88.05,-269.78,3
26040,4.21,-2.95,6.5,164.25,-44.46,-252.04,3
26066,2.87,-3.73,5.91,206.57,-28.05,-232.58,3
26090,1.36,-3.16,4.47,244.44,-23.54,-208.38,3
26115,0.9,-2.46,3.56,276.75,-15.43,-177.4,3
26140,0.65,-3.24,3.03,304.92,-16.96,-150.27,3
26165,-0.11,-4.97,2.34,331.2,12.19,-126.37,3
26190,-0.07,-5.66,1.75,357.54,78.23,-96.12,3
26215,1.69,-7.27,2.33,391.02,110.97,-58.81,3
26240,1.8,-10.71,2.28,427.18,106.64,-21.79,3
26264,2.88,-13.2,1.64,455.23,97.98,14.24,3
26290,4.2,-15.25,1.45,475.96,62.13,46.01,3
26314,6.78,-18.05,1.55,499.07,18.96,63.94,3
26339,7.7,-19.65,0.81,526.99,-63.97,62.9,3
26365,7.66,-19.65,-0.17,540.1,-176.89,40.22,3
26389,7.14,-19.65,-3.68,532.54,-243.72,0.64,3
26414,6.32,-19.65,-7.24,503.34,-241.4,-42.34,3
26439,6.12,-19.65,-10.39,439.56,-208.17,-75.94,3
26464,6.57,-19.65,-14.55,325.66,-187.14,-100.45,3
26490,6.16,-19.65,-18.46,179.01,-159.88,-125.88,3
26514,5.19,-19.65,-18.57,13.58,-164.15,-146.24,3
26540,5.37,-19.29,-14.16,-119.77,-165.67,-163.26,3
26564,5.23,-19.32,-8.93,-201.05,-99.33,-183.5,3
26590,6.04,-19.02,-6.03,-241.66,-50.49,-209.6,3
26615,5.86,-18.42,-4.59,-256.29,16.7,-245.39,3
26639,5.28,-16.67,-3.91,-251.66,64.26,-281.43,3
26665,4.72,-15.09,-3.61,-237.33,91.46,-306.61,3
26689,3.95,-12.92,-4.35,-223.18,85.18,-318.19,3
26715,1.97,-10.93,-5.11,-216.47,79.75,-315.63,3
26739,0.94,-8.97,-5.77,-222.45,66.46,-298.25,3
26764,0.19,-7.57,-6.55,-244.16,50.12,-260.45,3
26790,-0.53,-5.92,-6.8,-277.02,49.26,-212.4,3
26814,-0.23,-5.6,-5.7,-310.62,69.26,-167.28,3
26840,0.35,-5.83,-4.4,-342.63,39.51,-125.45,3
26864,0.51,-6.49,-3.1,-380.98,-49.52,-79.6,3
26889,-0.08,-7.87,-2.24,-424.03,-120.13,-21.49,3
26915,0,-9.93,-0.78,-458.42,-126.47,38.39,3
26939,1.91,-12.25,0.98,-481.23,-130.19,91.8,3
26964,4.06,-15.3,2.74,-496.78,-189.21,156.98,3
26989,7.6,-18.04,3.6,-492.45,-254.15,219.3,3
27014,10.94,-17.35,3.49,-482.14,-220,252.23,3
27039,16.63,-17.6,3.11,-488.79,-64.94,211.68,3
27064,18.6,-17.32,4.67,-495.56,52.37,115.64,3
27089,18.6,-17.64,7.19,-462.08,12.31,21.56,3
27114,18.6,-16.07,7.92,-413.12,-13.72,-37.04,3
27139,18.6,-15.28,8,-365.31,-18.6,-76.92,3
27164,18.6,-15.12,8.55,-326.84,-59.15,-120.51,3
27189,18.6,-14.08,9.8,-288.79,-46.53,-173.13,3
27214,18.6,-11.03,11.1,-241.66,-56.71,-217.34,3
27239,18.33,-9.15,11.79,-180.13,-62.2,-253.62,3
27264,15.83,-7.18,11.38,-113.73,-82.99,-284.6,3
27289,12.13,-6.08,9.97,-57.63,-79.03,-306.43,3
27314,9.06,-5.39,8.87,-8.31,-50.37,-314.84,3
27339,7.06,-4.24,8.07,41.82,-20.8,-311.24,3
27364,5.43,-3.34,7.63,95.96,2.92,-301.36,3
27389,4.04,-3.67,7.11,150.17,-1.77,-285.27,3
27413,2.59,-4.21,5.74,197.97,-23.72,-260.63,3
27439,1.14,-2.82,4.39,231.14,-54.46,-228.01,3
27463,0.06,-2.4,3.75,256.14,-63.85,-202.28,3
27488,-0.78,-3.21,3.37,283.22,-8.05,-180.33,3
27514,-0.65,-3.52,2.89,319.74,54.81,-151.12,3
27538,0.89,-4.57,2.67,362.42,109.75,-113.01,3
27563,3.1,-7.27,3.72,414.74,121.4,-81,3
27588,4.42,-12.42,4.19,472.91,81.21,-65.57,3
27613,4.87,-17.3,4.12,523.4,50.79,-65.09,3
27637,6.08,-19.65,3.72,562.06,77.56,-65.7,3
27663,7.78,-19.65,3.62,592.91,97.43,-51.37,3
27688,8.74,-19.65,2.5,617.97,74.02,-35.39,3
27712,10.97,-19.65,-0.94,629.31,-3.24,-33.01,3
27738,13.22,-19.65,-5.18,614.07,-83.78,-63.07,3
27762,13.11,-19.65,-12.45,543.88,-151.41,-128.13,3
27788,13.04,-19.65,-19.13,389.07,-140.06,-180.94,3
27813,12.22,-19.65,-19.22,188.52,-162.26,-210.33,3
27838,10.63,-19.65,-17.87,2.43,-198.97,-239.84,3
27863,9.52,-19.65,-11.52,-117.88,-159.76,-262.04,3
27888,8.52,-19.65,-6.79,-180.07,-102.81,-279.47,3
27913,8.19,-18.4,-4.23,-197.08,-38.3,-294.41,3
27939,7.35,-16.02,-3.28,-187.75,1.4,-305.57,3
27963,6.98,-13.95,-3.23,-169.83,48.59,-317.58,3
27988,6.02,-11.7,-4.2,-151.11,86.46,-330.63,3
28013,5.87,-9.76,-5.57,-143.36,89.45,-334.17,3
28038,4.61,-8.44,-6.71,-154.22,70.85,-326.18,3
28063,3.59,-7.03,-7.67,-180.68,51.95,-313.25,3
28088,1.55,-6.4,-7.67,-224.46,46.64,-293.19,3
28113,0.81,-6.14,-6.71,-278.06,53.71,-264.23,3
28138,0.5,-6.39,-5.52,-327.14,54.69,-232.28,3
28163,0.08,-7.12,-3.5,-367.2,16.4,-196.06,3
28187,-0.2,-7.76,-1.72,-399.58,-42.75,-151.43,3
28213,0.07,-8.97,0.24,-420.07,-93.91,-98.32,3
28238,0.83,-10.08,1.61,-430.25,-143.05,-40.03,3
28262,2.94,-11.48,2.5,-437.14,-208.05,28.75,3
28288,7.18,-13.69,3.57,-445.01,-295.43,108.2,3
28312,13.04,-16.1,4.2,-448.36,-359.33,176.01,3
28338,15.45,-17.19,3.29,-464.7,-307.75,200.09,3
28362,18.6,-19.65,4.86,-483.67,-182.62,111.62,3
28388,18.6,-17.61,6.79,-477.63,-14.46,-29.78,3
28413,18.6,-18.67,9.44,-431.72,33.35,-125.94,3
28437,18.6,-19.65,12.54,-372.69,-76.04,-160.82,3
28463,17.69,-18.25,12.32,-328.48,-224.64,-158.56,3
28487,18.39,-14.4,12.5,-292.27,-126.83,-166.12,3
28513,16.83,-11.52,12.99,-234.28,-20.07,-195.33,3
28538,15.74,-8.66,13.29,-169.52,-29.21,-214.96,3
28563,13.89,-5.24,13.27,-100.74,-73.6,-226.24,3
28588,12.31,-4.83,11.94,-42.27,-93.54,-241.55,3
28613,10.83,-3.93,10.6,10.66,-94.64,-252.65,3
28638,8.72,-2.97,8.53,58.04,-96.16,-259.29,3
28663,6.54,-2.45,6.83,98.04,-82.93,-258.93,3
28688,5.29,-2.25,5.8,137,-73.54,-251.55,3
28713,3.67,-2.47,4.68,172.12,-88.24,-242.04,3
28737,1.53,-2.28,3.62,198.52,-85.19,-227.58,3
28763,0.03,-2.18,3.08,222.3,-45.25,-205.94,3
28787,-0.16,-1.99,3.19,253.7,12.31,-175.15,3
28812,0.24,-2.8,3.36,300.11,36.28,-143.07,3
28838,0.35,-5.14,3.2,349.62,42.19,-111.61,3
28862,1.53,-7.92,2.72,399.25,63.71,-79.42,3
28887,2.86,-12.04,2.33,445.53,34.32,-49.23,3
28912,3.61,-14.39,1.95,480.35,17.13,-28.93,3
28937,3.63,-18.8,2.53,508.4,23.47,-18.87,3
28962,6.48,-19.65,2.34,535.59,54.69,-11.92,3
28987,8.55,-19.65,1.71,556.51,47.92,-8.56,3
29012,10.6,-19.65,-0.49,570.77,18.29,-18.56,3
29036,13.23,-19.65,-1.9,567.48,-52.08,-41.12,3
29062,13.07,-19.65,-6.29,533.64,-195.49,-103.56,3
29086,12.08,-19.65,-11.7,435.59,-201.34,-174.29,3
29112,10.74,-19.65,-14.14,294.37,-174.7,-216.67,3
29137,10.21,-19.65,-14.31,145.29,-189.21,-241.73,3
29162,9.52,-19.65,-11.68,17.67,-165.55,-263.68,3
29187,10.67,-19.65,-7.79,-64.71,-125.8,-285.69,3
29212,9.99,-19.24,-4.67,-101.66,-87.5,-307.83,3
29237,9.33,-17.51,-3.61,-110.74,-56.83,-327.04,3
29263,8.1,-15.75,-3.8,-105.56,-20.74,-339.47,3
29287,6.12,-13.1,-4.15,-106.23,-3.11,-343.5,3
29312,4.53,-10.89,-4.88,-116.84,-7.14,-332.58,3
29337,3.77,-8.84,-5.59,-130.68,-5.92,-309.72,3
29362,2.47,-6.75,-6.99,-149.95,-0.8,-281.85,3
29386,1.72,-5.32,-7.35,-179.71,-10.19,-252.46,3
29412,1.12,-4.42,-7.1,-220.74,-13.66,-216.91,3
29437,0.06,-3.92,-6.88,-271.66,-26.22,-177.65,3
29462,-0.4,-4.47,-5.53,-321.96,-18.54,-138.62,3
29487,0.11,-5.76,-3.97,-360.86,14.14,-104.72,3
29511,0.47,-6.83,-2.08,-397.94,0.54,-74.6,3
29536,0.74,-8.86,-0.23,-433.79,-55.92,-36.92,3
29562,1.32,-11.24,0.76,-465.43,-167.75,29.85,3
29586,4.53,-13.32,2.26,-477.45,-267.07,132.53,3
29612,5.71,-18.66,1.77,-482.57,-319.64,219.36,3
29636,11.67,-19.65,3.1,-524.58,-80.49,221.74,3
29661,18.6,-19.65,6.47,-552.69,79.08,104.12,3
29687,18.6,-17.17,10.42,-542.81,98.17,-59.11,3
29711,18.6,-18.76,13.26,-496.29,15.24,-169.35,3
29737,15.02,-19.04,14.77,-432.39,-51.65,-213.74,3
29761,14.63,-18.72,14.43,-354.58,-103.24,-212.34,3
29787,16.41,-17.37,12.27,-313.79,-135.31,-205.63,3
29811,17.6,-16.65,12.8,-281.41,-46.59,-219.78,3
29837,16.63,-13.59,14.2,-226.84,-69.76,-240.39,3
29862,15.52,-10.43,14.74,-168.97,-77.5,-252.95,3
29887,14.68,-8.14,15.09,-101.35,-81.22,-265.39,3
29912,11.97,-5.15,13.86,-37.39,-124.52,-277.46,3
29937,9.16,-5.05,11.33,19.44,-96.89,-289.78,3
29962,7.37,-4.68,9.13,64.68,-89.21,-291.85,3
29988,4.43,-4.09,7.52,98.58,-83.78,-283.25,3
30012,3.23,-3.53,6.53,133.95,-52.02,-263.56,3
30037,1.79,-2.44,5.64,165.9,-47.81,-236.3,3
30062,0.5,-1.72,4.72,196.39,-34.33,-204.35,3
30087,0.13,-0.38,3.85,226.69,-21.41,-169.41,3
30111,-0.44,-0.7,3.2,259.98,-3.11,-138.32,3
30136,-0.7,-1.58,2.34,294.01,23.9,-108.07,3
30162,-0.17,-2.84,1.87,329.8,80.85,-76,3
30186,1.34,-5.01,1.24,367.42,106.58,-43.5,3
30211,3.02,-7.37,0.75,405.35,76.58,-16.49,3
30236,4.72,-10.27,0.71,439.07,68.84,-1.37,3
30261,5.94,-12.95,-0.35,467.48,76.7,3.45,3
30286,9.22,-15.69,-0.21,488.03,77.25,4.36,3
30311,9.91,-19.41,0.12,505.78,16.82,-7.34,3
30336,9.79,-19.65,-1.45,519.07,-12.63,-21.31,3
30360,10.33,-19.65,-2.76,521.26,0.12,-47.22,3
30386,12.56,-19.65,-3.14,513.09,-3.05,-74.29,3
30410,13.28,-19.65,-4.94,501.26,-46.89,-96.85,3
30435,13.75,-19.65,-10.42,461.51,-102.93,-125.27,3
30461,13.4,-19.65,-14.68,362.67,-153.05,-158.2,3
30485,11.23,-19.65,-17.59,223.64,-164.58,-192.95,3
30511,10.37,-18.33,-17,69.5,-146.77,-221.91,3
30535,9.85,-17.89,-12.9,-43.55,-97.26,-247.16,3
30561,8.92,-16.95,-8.8,-105.26,-58.11,-270.45,3
30586,7.5,-15.79,-6.21,-135.32,-17.08,-284.47,3
30611,6.53,-13.74,-5.59,-145.8,30.3,-292.22,3
30636,5.49,-11.44,-5.64,-149.83,46.34,-290.21,3
30660,4.22,-9.61,-5.64,-157.27,44.26,-277.52,3
30686,3.55,-7.87,-6.33,-171.78,39.45,-260.39,3
30711,3.24,-6.46,-6.53,-197.51,50.97,-241.3,3
30735,2.54,-5.59,-6.01,-229.16,52.25,-222.04,3
30761,1.91,-5.49,-4.7,-258.61,51.34,-201.37,3
30785,1.64,-5.07,-3.58,-285.31,56.64,-180.45,3
30811,1.41,-5.02,-2.32,-308.12,46.58,-156.79,3
30835,0.92,-4.78,-1.52,-328.18,42.74,-135.45,3
30860,1.34,-5.68,-0.54,-345.62,45.67,-118.32,3
30886,1.38,-6.55,0.21,-364.09,11.4,-95.57,3
30910,1.18,-8.53,0.82,-390.31,-41.28,-67.1,3
30935,2.22,-11.03,1.75,-425.25,-66.22,-28.07,3
30960,3.56,-15.02,2.87,-463.24,-102.2,12.11,3
30985,5.19,-18.33,2.95,-501.9,-116.95,43.08,3
31010,7.28,-19.65,3.73,-542.81,-84.03,55.34,3
31035,11.5,-19.65,6.71,-568.67,-30,25.83,3
31060,15.42,-19.65,11.35,-568.54,10.73,-47.4,3
31084,17.97,-19.65,15.54,-520.07,71.4,-129.96,3
31110,18.6,-19.65,18.28,-426.47,22.31,-184.48,3
31134,16.63,-16.81,18.34,-321.47,-7.08,-219.54,3
31160,15.84,-15.74,17.79,-231.11,-28.11,-248.32,3
31185,14.5,-15.26,16.6,-156.84,-91.1,-269.47,3
31210,13.86,-13.15,15.15,-99.83,-123.11,-279.9,3
31235,12.63,-11.22,13.89,-47.94,-114.03,-283.99,3
31260,10.9,-8.99,12.11,1.02,-116.53,-282.04,3
31285,9.09,-6.78,10.1,48.1,-103.97,-280.39,3
31311,7.42,-5.44,8.26,88.16,-88.66,-275.08,3
31335,5.91,-4.54,7.42,121.33,-61.83,-261.91,3
31360,5.1,-4.31,7.23,159.32,-55.37,-242.28,3
31385,4.2,-4.34,6.8,199.92,-87.99,-220.21,3
31410,2.74,-4.53,5.2,234.92,-105.31,-202.77,3
31434,1.99,-3.73,3.9,262.67,-77.2,-181.37,3
31460,1.98,-4.28,3.57,293.09,-64.52,-156.79,3
31485,1.57,-6.6,2.51,324.74,-66.71,-134.72,3
31509,1.75,-5.8,1.9,352.55,-25.92,-114.72,3
31535,2.91,-8.08,2.63,393.95,5.97,-101.61,3
31559,3.66,-12.16,2.01,438.46,36.7,-91.24,3
31584,5.9,-13.54,1.4,470.04,55.24,-77.4,3
31610,7.72,-17.55,0.93,497.97,9.45,-80.39,3
31634,6.51,-19.61,0.63,513.09,-32.14,-92.4,3
31659,7.71,-19.65,0.83,526.75,-11.59,-107.71,3
31684,8.34,-19.65,-1.12,540.1,46.09,-112.59,3
31709,11.63,-19.65,-1.95,534.86,90.3,-106.67,3
31735,12.86,-19.65,-3.4,520.29,29.39,-114.17,3
31759,14.53,-19.65,-5.63,491.69,-44.58,-125.51,3
31784,14.13,-19.65,-9.57,419.13,-122.14,-143.68,3
31809,13.17,-19.65,-12.19,299.68,-198.6,-168.5,3
31834,11.48,-19.2,-14.44,158.1,-184.33,-205.88,3
31859,11.39,-17.54,-13.24,34.07,-113.23,-235.15,3
31885,10.95,-16.98,-9.91,-45.44,-70.06,-259.41,3
31910,9.54,-15.88,-7.65,-92.39,-41.28,-280.63,3
31934,7.6,-14.12,-6.75,-117.76,17.31,-295.82,3
31960,6.62,-12.27,-6.76,-134.83,78.59,-305.82,3
31984,5.96,-10.72,-6.69,-150.74,86.34,-301.91,3
32010,4.59,-8.97,-7.3,-175.99,52.68,-286.79,3
32035,3.01,-7.99,-7.44,-210.62,54.69,-266.36,3
32059,2.54,-7.25,-6.58,-253.55,83.1,-247.04,3
32085,1.52,-7.31,-4.97,-294.7,101.76,-229.54,3
32109,1.43,-7.66,-3.52,-324.83,92.62,-209.78,3
32134,1.01,-7.73,-2.16,-356.11,51.76,-181.24,3
32159,0.66,-9.08,-0.46,-389.58,-29.21,-140.27,3
32184,0.61,-10.53,0.39,-424.58,-94.39,-84.6,3
32209,2.05,-13.35,1.67,-449.58,-149.15,-25.39,3
32234,2.84,-15.15,1.76,-474.7,-185.55,30.95,3
32259,4.54,-16.65,2.76,-507.57,-147.38,65.64,3
32284,8.9,-19.25,4.62,-534.46,-42.44,58.08,3
32309,13.08,-19.65,7.12,-543.91,5.42,8.08,3
32334,15.62,-19.65,9.43,-536.41,2.37,-61.37,3
32359,16.01,-19.65,11.75,-503.48,-5.43,-125.63,3
32384,18.11,-19.65,13.35,-441.53,6.28,-170.15,3
32408,17.75,-19.37,14.19,-376.05,-55.43,-195.02,3
32434,17.26,-17.6,14.03,-310.8,-93.42,-208.13,3
32458,15.69,-17.22,13.31,-255.31,-95.43,-231,3
32484,15.88,-14.35,12.98,-212.82,-98.36,-246,3
32509,14.38,-11.28,13.09,-165.25,-106.22,-255.69,3
32534,12.53,-9.03,13.16,-107.08,-84.39,-266.85,3
32559,11.12,-6.77,12.08,-42.15,-76.71,-268.5,3
32584,8.87,-4.55,10.07,17.12,-83.54,-263.44,3
32609,6.83,-3.44,8.37,66.39,-76.22,-257.77,3
32634,5.14,-3.39,6.88,109.07,-66.53,-250.08,3
32659,4.1,-3.17,5.74,148.16,-49.76,-240.02,3
32684,3.11,-2.96,4.59,183.03,-56.95,-228.62,3
32708,1.83,-2.83,3.9,210.23,-40.19,-209.66,3
32734,1.51,-2.23,3.56,240.72,-18.11,-187.28,3
32759,0.78,-2.73,3.33,279.68,11.76,-160.63,3
32783,0.78,-3.79,2.55,324.74,47.62,-128.38,3
32809,1.08,-5.68,1.77,364.74,83.59,-91.73,3
32833,1.68,-6.99,1.31,401.02,95.91,-51.61,3
32858,2.03,-10.24,1.49,431.32,105.91,-17.04,3
32883,5.09,-13.91,1.09,458.03,144.02,16.19,3
32908,10.18,-15.5,1.31,487.67,71.03,40.77,3
32934,8.31,-17.19,1.49,502.48,-76.28,26.74,3
32958,6.71,-19.65,0.97,513.21,-63.11,-7.65,3
32983,7.43,-19.65,-0.85,519.43,23.23,-28.38,3
33008,11.1,-19.65,-0.86,513.21,58.23,-23.2,3
