t_ms,ax,ay,az,gx,gy,gz,label
5,-8.39,-0.63,-4.6,12.43,33.41,-6.61,3
29,-8.62,-0.89,-4.7,3.89,2.25,-12.77,3
54,-9.02,-0.78,-4.54,0.66,-10.86,-17.83,3
79,-9.32,-0.84,-4.61,-0.13,2.43,-16.18,3
103,-8.88,-1.26,-4.94,-3.37,9.02,-16,3
128,-8.93,-1.39,-4.8,-8.37,4.08,-21.25,3
152,-9.17,-0.99,-4.51,-8.73,-14.33,-23.2,3
177,-9.4,-0.82,-3.96,-3.79,-3.24,-19.48,3
201,-9.23,-1.08,-4.02,2.91,15.54,-15.64,3
226,-9.48,-1.07,-4.39,7.49,21.95,-13.62,3
251,-9.79,-1.1,-5.05,12.85,22.86,-11.73,3
275,-10.03,-1.26,-5.67,13.65,22.74,-8.5,3
301,-10.11,-1.34,-6.32,8.22,21.7,-4.78,3
325,-10.27,-1.24,-6.38,0.29,15.91,-0.7,3
350,-10.21,-1.01,-6.09,-4.1,4.32,2.23,3
375,-9.92,-0.96,-5.84,-6.54,1.03,4.67,3
399,-9.93,-0.89,-5.49,-7.45,4.08,6.93,3
424,-9.95,-0.87,-5.68,-8,10.79,11.8,3
448,-9.55,-0.9,-5.79,-10.5,7.25,15.4,3
473,-9.18,-0.98,-5.68,-16.41,-4.76,14.12,3
497,-9.18,-0.78,-5.41,-18.61,-9.76,10.83,3
522,-9.04,-0.56,-5.21,-16.9,-5.31,10.1,3
547,-8.87,-0.45,-5.15,-15.5,-2.26,10.34,3
571,-8.85,-0.64,-5.15,-14.1,0.91,10.89,3
597,-8.74,-0.41,-5.1,-10.2,5.06,10.77,3
621,-8.74,-0.32,-5.33,-5.2,6.58,9.97,3
646,-8.65,-0.37,-5.6,-3.55,6.34,9.97,3
670,-8.52,-0.45,-5.66,-3.24,5.06,9.55,3
695,-8.41,-0.3,-5.68,-1.29,5.91,7.29,3
720,-8.27,-0.29,-5.44,-0.32,7.37,5.4,3
744,-8.12,-0.32,-5.65,-0.81,3.04,2.78,3
769,-8.14,-0.25,-5.55,-0.38,0.54,0.22,3
793,-8.34,-0.18,-5.61,-0.26,3.72,-2.4,3
818,-8.26,-0.32,-5.73,-2.88,3.29,-4.9,3
842,-8.36,-0.35,-5.61,-5.81,-1.71,-7.47,3
867,-8.64,-0.37,-5.47,-7.15,-7.32,-8.68,3
892,-8.72,-0.4,-5.22,-7.45,-4.82,-8.2,3
916,-8.77,-0.46,-5.26,-6.9,-1.65,-8.2,3
941,-8.89,-0.48,-5.19,-4.77,-4.7,-8.75,3
965,-9.04,-0.53,-5.32,-3.49,-9.76,-7.71,3
990,-9.07,-0.51,-5.33,-3.31,-6.65,-5.33,3
1015,-8.93,-0.41,-5.44,-2.51,-5.37,-3.44,3
1039,-8.96,-0.36,-5.46,-1.72,-3.78,-1.67,3
1064,-8.88,-0.4,-5.53,-1.9,-3.42,-0.7,3
1088,-8.78,-0.23,-5.34,-1.66,-6.35,-1.06,3
1113,-8.74,-0.22,-5.4,-0.26,-4.82,-1.73,3
1137,-8.83,-0.32,-5.5,0.05,-3.24,-1.25,3
1162,-8.76,-0.27,-5.48,-0.44,-2.63,-1.12,3
1187,-8.76,-0.13,-5.39,0.05,-0.86,-1.86,3
1211,-8.93,-0.14,-5.46,0.6,1.58,-1.98,3
1236,-9.01,-0.09,-5.42,0.78,3.04,-1.73,3
1260,-9.08,-0.03,-5.58,1.02,-0.19,-1.67,3
1285,-9.26,-0.2,-5.74,-0.62,-0.8,-0.76,3
1310,-9.36,-0.31,-5.78,-3.24,-2.44,0.52,3
1335,-9.13,-0.28,-5.55,-4.34,-4.03,1.32,3
1360,-9.04,-0.22,-5.31,-3.61,-5.07,1.68,3
1384,-8.98,-0.31,-5.29,-1.96,-3.42,2.6,3
1409,-9.01,-0.34,-5.31,-1.29,-1.53,3.02,3
1433,-8.88,-0.41,-5.37,-1.78,-0.68,3.21,3
1458,-8.73,-0.31,-5.3,-1.41,-3.78,2.41,3
1482,-8.7,-0.39,-5.25,-0.44,-2.38,1.56,3
1507,-8.69,-0.46,-5.23,-0.93,-3.42,0.46,3
1532,-8.65,-0.51,-5.11,-0.81,-2.26,-0.51,3
1556,-8.65,-0.49,-5.09,-0.07,-0.98,-2.22,3
1581,-8.67,-0.52,-5.15,1.15,-0.86,-2.77,3
1605,-8.7,-0.49,-5.12,2.3,-0.43,-2.28,3
1630,-8.64,-0.43,-5.24,3.04,1.03,-2.59,3
1655,-8.54,-0.48,-5.28,3.71,3.04,-3.93,3
1679,-8.7,-0.43,-5.3,4.07,0.73,-5.76,3
1704,-8.8,-0.4,-5.44,4.99,1.95,-6.18,3
1728,-8.95,-0.33,-5.71,4.07,2.8,-5.39,3
1754,-8.98,-0.33,-5.75,1.82,2.19,-3.44,3
1778,-8.99,-0.3,-5.64,-1.29,3.72,-2.65,3
1803,-8.88,-0.37,-5.63,-3.24,1.95,-4.05,3
1828,-8.89,-0.21,-5.37,-2.15,-0.49,-6.79,3
1852,-9.06,-0.28,-5.39,-1.66,-3.18,-8.32,3
1877,-9.23,-0.46,-5.41,-2.39,-3.24,-8.32,3
1901,-9.2,-0.52,-5.61,-4.59,-1.83,-6.73,3
1926,-9.2,-0.5,-5.33,-6.29,-4.03,-4.66,3
1950,-9.07,-0.42,-4.98,-5.2,-4.21,-3.75,3
1975,-9.04,-0.54,-4.92,-2.57,-3.85,-3.26,3
2000,-8.9,-0.62,-4.93,-0.93,-3.66,-3.26,3
2024,-8.83,-0.68,-4.95,-0.13,-3.66,-3.38,3
2049,-8.94,-0.7,-4.77,2.37,-5.43,-3.75,3
2073,-8.98,-0.73,-4.87,6.21,-6.22,-4.29,3
2098,-8.92,-0.79,-4.92,8.52,-5.74,-3.32,3
2122,-8.91,-0.84,-5,9.56,-3.85,-1.61,3
2147,-8.82,-0.83,-5.17,10.17,-3.48,-0.33,3
2173,-8.53,-0.81,-5.05,11.63,-1.22,-0.64,3
2197,-8.31,-0.78,-5.14,13.4,-0.61,-3.81,3
2222,-8.22,-0.69,-5.07,15.17,-0.13,-8.44,3
2246,-8.09,-0.8,-5.3,16.63,-1.1,-15.03,3
2271,-7.93,-0.84,-5.6,14.99,-4.52,-22.77,3
2296,-8.06,-0.81,-5.61,12.79,-5.55,-30.45,3
2320,-8.61,-0.88,-6.16,10.11,-1.65,-36.67,3
2346,-9.05,-0.97,-6.71,1.69,-1.28,-39.48,3
2370,-9.48,-1,-7.16,-8.31,-2.87,-45.7,3
2395,-11.4,-1.28,-8.13,-21.84,10.79,-52.16,3
2419,-13.95,-1.71,-9.37,-42.33,39.2,-52.59,3
2444,-15.96,-1.88,-9.97,-65.44,35.36,-42.71,3
2470,-18.11,-1.92,-9.28,-83.3,1.46,-20.57,3
2494,-20.6,-2.6,-8.79,-96.41,5.91,28.88,3
2519,-20.6,-3.63,-8.04,-107.27,52.37,101.44,3
2543,-19.83,-3.7,-7.35,-115.68,65.6,173.02,3
2569,-15.88,-3.7,-6.15,-120.19,22.98,221.13,3
2594,-12.87,-4.64,-5.17,-120.19,14.57,253.08,3
2618,-9.55,-4.51,-3.68,-119.16,41.15,266.74,3
2644,-5.92,-3.74,-1.81,-117.94,42.68,258.02,3
2668,-3.15,-2.79,0.41,-104.46,22.31,230.52,3
2693,-1.33,-1.8,2.91,-71.66,2.62,197.78,3
2718,-0.24,-0.58,4.97,-20.07,-3.42,163.57,3
2743,0.47,-0.27,5.87,40.72,-18.91,123.94,3
2768,0.41,-0.67,5.95,103.95,-44.76,86.31,3
2792,-0.3,-1.17,5.83,174.38,-78.42,53.51,3
2817,-1.39,-2.54,5.92,253.58,-78.85,25.71,3
2842,-2.81,-4.48,4.19,332.61,-83.17,6.13,3
2867,-4.61,-7.59,1.28,403.95,-110.73,-0.09,3
2891,-6.88,-10.61,-3.96,459.98,-160.25,-9.66,3
2916,-10.91,-14.12,-8.66,479.13,-197.14,-24.96,3
2942,-16.96,-15.81,-10.78,471.51,-158.91,-8.5,3
2966,-20.6,-15.95,-12.4,455.29,-26.1,68.75,3
2992,-19.79,-15.77,-17.41,403.09,45.48,155.89,3
3016,-16.95,-13.33,-19.22,322.24,-17.38,197.29,3
3042,-16.09,-10.88,-19.22,241.02,-64.82,215.76,3
3067,-16.41,-10.8,-18.33,181.08,-77.02,249.18,3
3091,-13.92,-9.94,-18.14,128.16,-91.16,276.43,3
3117,-11.32,-8.87,-17.62,67.73,-108.48,285.46,3
3141,-8.21,-7.55,-16.21,3.16,-89.76,279.3,3
3167,-5.34,-5.88,-13.96,-57.45,-85.86,253.02,3
3192,-3.48,-4.65,-12.01,-111.66,-85.8,217.47,3
3216,-2.82,-5.22,-11.18,-161.05,-62.02,184.12,3
3242,-1.97,-4.96,-9.12,-204.22,-50.86,149,3
3266,-1.72,-4.69,-8.08,-239.34,-38.85,108.14,3
3291,-1.01,-4.46,-6.6,-270.13,-44.15,61.44,3
3316,-1.49,-4.83,-4.93,-292.88,-32.26,14.49,3
3341,-2.98,-3.89,-3.68,-304.34,-2.57,-22.28,3
3366,-3.91,-5.17,-3.77,-320.01,50.73,-46.67,3
3390,-3.79,-6.5,-3.13,-338.97,82.43,-78.26,3
3416,-4.32,-6.91,-1.3,-349.4,77.68,-117.46,3
3440,-4.91,-7.42,-0.74,-351.59,55.6,-153.07,3
3465,-6.26,-8.74,-0.88,-355.98,68.9,-183.32,3
3490,-8.07,-10.96,-1.45,-361.53,96.46,-210.33,3
3515,-10.21,-12.54,-1.4,-368.79,88.47,-232.28,3
3540,-12.08,-13.63,-0.47,-373.79,7.56,-243.5,3
3565,-13.93,-14.78,1.65,-373,-115.8,-230.76,3
3590,-17.16,-14.64,4.28,-361.41,-113.84,-181.55,3
3615,-19.35,-15.48,4.87,-328,-48.78,-124.96,3
3640,-20.6,-19.19,3.21,-292.75,-50.8,-72.77,3
3665,-20.6,-19.65,4.25,-261.41,-111.34,-6.25,3
3690,-20.6,-16.62,7.08,-219.77,-126.83,88.81,3
3715,-20.6,-14.46,8.42,-155.8,-84.76,193.87,3
3739,-19.71,-14.69,7.27,-98.55,-40.61,286.43,3
3765,-16.98,-14.49,5.67,-59.16,-5.92,354.18,3
3790,-13.82,-13.61,4.73,-35.32,20.12,397.96,3
3814,-10.2,-12.58,4.61,-18.3,26.28,417.77,3
3840,-6.72,-9.77,5.75,3.16,54.63,416.98,3
3864,-4.18,-7.59,7,29.56,96.7,392.9,3
3889,-1.38,-5.49,6.38,62.06,98.35,349.73,3
3913,0.87,-4.06,5.83,96.21,56.58,286.31,3
3939,2.2,-2.42,5.83,139.32,12.86,214.48,3
3964,2.25,-2.07,5.27,192.18,-45.06,137.72,3
3988,1.3,-2.55,4.83,255.53,-117.56,59.67,3
4014,-1.04,-3.96,3.54,319.5,-162.14,-8.44,3
4038,-3.29,-5.79,2.34,375.35,-194.88,-61.61,3
4063,-4.89,-7.99,1.4,416.93,-237.38,-102.83,3
4089,-8.13,-10.32,0.83,458.4,-219.58,-131.92,3
4113,-11.63,-14.63,-0.9,508.34,-182.14,-146.79,3
4138,-14.95,-17.94,-3,532.73,-133.23,-131.43,3
4163,-18.16,-19.55,-5.71,538.76,-126.83,-89.72,3
4188,-20.6,-19.65,-8.77,501.26,-105.8,-44.23,3
4213,-20.6,-18.65,-11.24,435.17,-57.32,6.99,3
4238,-20.6,-17.15,-12.98,355.35,25.36,53.33,3
4263,-20.6,-13.57,-12.54,291.27,71.09,107.35,3
4288,-20.6,-11.41,-14.34,247.06,45.12,160.7,3
4313,-18.36,-9.19,-16.23,190.84,-5,204.85,3
4338,-15.76,-8.49,-16.98,116.94,-21.77,236.5,3
4363,-11.84,-7.01,-15.96,34.07,-30.37,253.87,3
4388,-8.4,-5.53,-13.15,-31.35,-66.53,246.74,3
4413,-6.24,-4.79,-10.42,-83.24,-90.19,233.26,3
4438,-4.7,-4.19,-8.38,-126.35,-78.6,219.61,3
4462,-3.35,-3.66,-6.6,-163.24,-39.09,199.3,3
4488,-1.89,-3.26,-5.13,-197.88,-6.35,167.59,3
4512,-1.13,-3.63,-4.06,-223.79,-0.55,124.24,3
4537,-0.56,-2.47,-2.86,-244.58,0.79,73.14,3
4562,-0.82,-1.79,-1.86,-261.11,23.17,18.08,3
4587,-1.66,-2.55,-1.83,-275.44,53.35,-39.78,3
4612,-2.57,-3.69,-1.8,-296.41,97.68,-100.09,3
4636,-3.66,-5.94,-1.58,-313.18,96.09,-157.65,3
4661,-5.12,-7.4,-1.63,-321.9,61.15,-201.85,3
4687,-7.42,-9.23,-1.86,-336.29,23.29,-221.55,3
4711,-9.72,-10.7,-1.96,-357.57,-23.48,-212.65,3
4736,-11.44,-14.22,-1.86,-384.03,-47.44,-185.21,3
4761,-14.08,-15.93,-0.1,-406.17,-48.05,-147.28,3
4786,-14.58,-16.11,1.03,-413,-75.74,-105.82,3
4811,-14.36,-17.09,2.16,-413,-103.97,-65.64,3
4836,-14.34,-18.3,2.61,-402.02,-103.11,-32.28,3
4862,-15.32,-19.03,3.25,-377.45,-85.25,0.34,3
4886,-15.69,-19.44,4.41,-350.68,-91.65,31.25,3
4911,-15.95,-16.83,6.42,-312.81,-127.08,76.68,3
4936,-16.45,-14.55,8.28,-245.19,-119.33,134.24,3
4961,-16.02,-13.17,9.3,-165.93,-97.56,193.75,3
4986,-14.69,-12.42,8.74,-97.27,-73.36,240.58,3
5011,-12.97,-11.28,7.86,-38.43,-53.78,271.19,3
5036,-10.87,-9.99,6.69,8.22,-41.28,284.67,3
5060,-9.42,-8.58,6.06,43.04,-14.94,286.19,3
5086,-7.6,-6.86,5.95,74.44,0.42,281.37,3
5111,-5.83,-5.22,5.75,104.86,-13.48,260.09,3
5135,-4.72,-3.78,5.58,139.01,-24.88,224.91,3
5160,-4.4,-2.58,5.57,176.45,-22.02,185.34,3
5185,-4.16,-2.39,5.27,215.72,-12.93,156.98,3
5210,-3.8,-2.44,4.62,255.72,-14.88,133.27,3
5234,-3.53,-2.48,3.63,300.29,-32.38,103.45,3
5260,-3.77,-3.6,2.41,338.22,-47.02,72.78,3
5285,-4.2,-4.53,1.19,370.47,-45.86,50.77,3
5309,-4.53,-6.01,0.23,403.58,-44.39,35.77,3
5334,-5.17,-8.15,-0.83,433.76,-43.24,21.38,3
5359,-5.57,-10.75,-1.66,459.56,-29.64,1.99,3
5384,-6.85,-12.61,-2.94,477.79,-41.59,-15.7,3
5408,-9.2,-12.9,-4.45,484.25,-61.1,-18.44,3
5434,-12.14,-13.69,-6.7,470.41,-52.2,3.57,3
5459,-15.09,-14.2,-8.98,429.43,-20.61,38.63,3
5483,-16.96,-13.38,-10.25,378.09,-0.61,69.61,3
5509,-17.65,-12.08,-11.47,331.81,-31.53,91.01,3
5533,-18.84,-11.39,-13.25,286.39,-65.67,111.44,3
5558,-19.63,-10.93,-14.5,240.47,-100.92,136.74,3
5584,-19.99,-8.91,-14.29,192.73,-85.74,181.86,3
5608,-17.48,-7.87,-14.07,142.43,-78.05,226.8,3
5634,-14.16,-6.54,-13.73,92.36,-101.47,248.08,3
5658,-11.78,-6.01,-12.85,44.19,-115.67,255.4,3
5683,-9.55,-4.74,-12.01,-3.73,-95.19,254.54,3
5709,-6.97,-3.71,-11.25,-54.65,-70.25,240.7,3
5733,-4.93,-3.33,-10.32,-104.46,-67.87,213.87,3
5758,-3.56,-2.91,-8.62,-148.73,-72.75,180.4,3
5783,-2.56,-2.49,-7.41,-186.66,-72.5,144.24,3
5808,-1.8,-2.17,-6.41,-221.84,-62.75,104.79,3
5832,-1.65,-2.37,-5.4,-256.11,-47.56,60.28,3
5858,-1.48,-2.97,-4.36,-288.18,-45,15.52,3
5883,-2.38,-3.88,-3.08,-318.24,-42.81,-22.59,3
5907,-3.45,-5.46,-2.3,-348.12,-9.94,-52.16,3
5932,-4.05,-7.52,-1.31,-375.98,14.08,-81.37,3
5957,-5.33,-9.04,-0.9,-400.31,48.84,-110.7,3
5982,-6.35,-12.44,-0.99,-422.2,80.42,-137.46,3
6007,-7.51,-14.17,-0.96,-438.3,109.08,-163.68,3
6032,-8.89,-16.46,-1.43,-449.03,101.15,-189.72,3
6057,-10.88,-19.26,-1.84,-456.96,24.08,-204.84,3
6081,-12.95,-19.65,-1.14,-472.93,-87.56,-196.3,3
6107,-14.41,-19.65,1.64,-484.95,-155.98,-155.63,3
6131,-15.47,-19.65,4.2,-465.74,-198.54,-78.5,3
6157,-16.59,-19.65,6.23,-411.17,-178.84,7.17,3
6182,-16.2,-19.65,6.87,-333.73,-152.56,78.75,3
6207,-15.98,-17.93,7.99,-238.67,-153.78,149.24,3
6232,-15.76,-16.17,8.14,-144.16,-161.89,218.39,3
6256,-14.37,-15.58,6.48,-61.66,-127.32,275.46,3
6282,-13,-15.18,4.24,-10.87,-74.94,318.26,3
6307,-10.88,-14.27,3.2,15.05,-37.75,349.3,3
6332,-8.76,-12.6,3.28,28.83,-11.16,359.67,3
6357,-6.54,-10.35,3.61,36.63,-1.77,353.51,3
6381,-5,-7.67,4.99,54.44,-1.47,331.74,3
6406,-3.93,-5.2,5.8,87.67,-7.5,295.76,3
6431,-4.22,-3.47,6.75,128.34,29.08,260.58,3
6456,-3.87,-2.13,6.84,180.6,55.48,225.95,3
6481,-2.84,-2.35,5.22,237.12,9.93,185.58,3
6505,-2.72,-2.55,4.25,284.8,-43.05,142.96,3
6531,-3.03,-3.28,3.38,330.17,-63.48,99.79,3
6555,-3.47,-4.59,2.36,377.67,-65.86,61.13,3
6580,-4.06,-6.49,1.16,423.76,-65.19,28.27,3
6605,-5.28,-8.73,-0.12,466.69,-50.67,6.32,3
6630,-7.05,-11.59,-1.49,498.82,-49.27,1.38,3
6655,-9.55,-14.68,-3.41,526.32,-37.14,16.56,3
6679,-12.38,-16.62,-5.87,535.59,-34.94,56.13,3
6705,-14.43,-16.93,-9.64,513.21,-23.72,111.07,3
6729,-15.36,-17.58,-14.24,464.62,-36.1,146.37,3
6754,-17.67,-14.73,-15.75,388.83,-38.97,167.23,3
6780,-17.89,-14.5,-17.29,316.87,-20.25,193.45,3
6804,-17.16,-12.68,-18.07,256.39,-55.92,218.26,3
6830,-15.46,-11.51,-18.99,200.23,-91.71,236.31,3
6854,-14.41,-9.12,-19.1,142.12,-122.69,253.08,3
6880,-12.58,-7.98,-18.84,77.36,-134.03,269.12,3
6905,-9.84,-6.34,-16.86,11.51,-126.04,279.3,3
6929,-6.93,-4.82,-14.8,-52.76,-102.87,273.51,3
6955,-4.32,-3.76,-12.44,-109.58,-97.87,249.61,3
6979,-2.42,-3.71,-10.22,-156.78,-88.3,216.44,3
7005,-1.97,-2.88,-7.75,-199.16,-66.71,182.23,3
7029,-1.15,-2.5,-5.76,-233.42,-31.41,138.75,3
7054,-0.25,-2.23,-4.3,-261.17,-18.97,82.35,3
7079,-0.2,-2.41,-3.53,-281.41,-7.87,21.92,3
7104,-0.41,-2.63,-2.97,-300.13,-0.13,-39.11,3
7129,-1.21,-4.28,-2.69,-320.19,-13.66,-95.57,3
7153,-2.59,-6.15,-1.96,-342.02,-2.5,-136.73,3
7178,-4.04,-7.53,-1.59,-359.89,32.56,-167.04,3
7204,-4.74,-10.17,-1.96,-376.59,57.37,-198.07,3
7228,-5.37,-13.71,-2.73,-399.34,36.76,-230.45,3
7253,-7.55,-15.98,-2.16,-426.59,5.12,-248.93,3
7278,-10.21,-17.14,-1.75,-451.96,-23.36,-244.35,3
7303,-11.57,-19.65,-1.21,-465.86,-79.52,-220.76,3
7328,-11.75,-19.65,-0.97,-467.26,-135.06,-181.37,3
7353,-14.16,-19.65,1.3,-473.73,-191.59,-115.57,3
7379,-14.53,-19.65,3.45,-457.2,-200.86,-45.7,3
7403,-15.26,-19.65,4.83,-406.72,-199.33,28.69,3
7428,-15.46,-19.65,6.17,-332.81,-208.84,106.8,3
7453,-15.31,-18.78,8.27,-240.31,-187.01,185.03,3
7478,-14.9,-16.53,7.91,-136.35,-137.69,248.02,3
7504,-14.79,-16.02,6.09,-59.16,-115.31,296.8,3
7528,-13.88,-15.53,4.15,-10.87,-89.39,338.14,3
7553,-12.2,-14.28,3.11,19.01,-52.08,367.23,3
7578,-9.73,-12.55,2.73,33.89,-15.8,384.12,3
7603,-7.2,-10.3,2.85,41.39,-6.77,381.86,3
7627,-5.23,-7.83,4.17,50.47,-2.87,357.84,3
7653,-3.74,-4.87,5.18,74.32,-12.2,320.4,3
7678,-3.69,-3.27,5.96,113.52,2.31,276.8,3
7702,-2.65,-2.2,5.89,159.56,9.63,232.29,3
7727,-1.85,-1.75,5.1,207.91,-23.36,184.42,3
7752,-1.59,-1.78,4.4,253.83,-59.03,136.62,3
7777,-1.93,-2.02,4.12,304.62,-81.89,86.68,3
7802,-2.45,-3.61,3.1,355.53,-89.64,43.39,3
7826,-2.89,-4.69,2.18,402.12,-92.44,8.08,3
7852,-3.59,-6.65,0.7,442.73,-108.11,-22.34,3
7876,-5.11,-9.49,-0.58,481.93,-106.59,-47.28,3
7901,-7.38,-12.72,-2.32,517.67,-63.72,-65.7,3
7927,-9.77,-14.22,-4.09,532.6,-6.28,-47.83,3
7951,-11.88,-16.64,-7.14,533.7,-58.97,-7.71,3
7976,-15.78,-18.02,-10.05,512.73,-68.24,34.36,3
8001,-18.96,-17.93,-12.35,453.82,-18.85,87.53,3
8026,-18.37,-17.33,-14.59,377.97,32.37,132.84,3
8050,-17.33,-16.06,-16,297.85,54.57,157.41,3
8076,-16.56,-12.86,-16.67,234.13,22.31,165.58,3
8101,-15.59,-11.37,-17.3,186.69,-36.96,176.86,3
8126,-16.07,-10.39,-17.87,123.22,-75.25,208.51,3
8151,-14.39,-8.64,-15.97,59.93,-96.28,245.89,3
8176,-11.22,-7.98,-14.12,4.13,-116.89,269.18,3
8201,-8.25,-7.46,-11.66,-40.74,-133.54,274.12,3
8226,-5.91,-6.52,-10.48,-81.35,-122.63,266.68,3
8251,-4.13,-5.41,-9.51,-125.62,-121.65,251.74,3
8276,-3.07,-4.68,-8.09,-168.18,-88.17,233.08,3
8300,-1.99,-3.97,-6.67,-206.78,-57.44,204.48,3
8326,-0.7,-4.46,-5.56,-245.5,-23.6,163.81,3
8350,0.02,-2.85,-4.19,-279.46,6.7,111.44,3
8375,0.05,-3.02,-3.59,-306.29,7.68,52.84,3
8400,-0.27,-3.95,-2.86,-326.11,10.48,-4.9,3
8425,-1.9,-4.93,-2.41,-342.27,27.86,-55.45,3
8450,-3.85,-5.53,-2.83,-362.51,83.29,-99.29,3
8474,-5.21,-9.28,-3.99,-397.2,93.23,-132.71,3
8499,-6.29,-10.95,-3.83,-427.63,105.06,-158.93,3
8525,-6.85,-14.51,-4.85,-452.08,121.21,-190.45,3
8549,-7.47,-17.32,-5.05,-477.08,128.17,-228.93,3
8575,-7.59,-19.65,-4.92,-490.92,58.35,-269.17,3
8599,-9.1,-19.65,-4.03,-503.18,-48.85,-292.89,3
8624,-10.98,-19.65,-1.42,-513,-163.54,-281.61,3
8649,-15.07,-19.65,2.63,-519.82,-208.11,-223.62,3
8674,-15.64,-19.65,4.64,-486.71,-251.95,-145.27,3
8700,-16.56,-19.65,8.28,-393.91,-265,-43.56,3
8724,-17.66,-18.85,12.23,-249.71,-206.34,62.96,3
8750,-16.54,-16.43,10.77,-100.56,-175.8,148.39,3
8774,-14.92,-16.72,6.17,8.04,-168.97,203.14,3
8799,-13.92,-16.96,3.39,70.23,-138.23,248.26,3
8825,-13.13,-16,1.99,97.36,-86.16,288.69,3
8849,-11.02,-14.42,1.41,104.13,-38.66,320.7,3
8875,-8.59,-12.47,1.51,100.78,-14.33,334.73,3
8899,-6.86,-9.94,1.79,102.55,-20.74,326.19,3
8924,-6.09,-8.08,2.96,109.62,-13.24,307.04,3
8949,-5.35,-6.26,3.47,124.93,-7.08,285.64,3
8974,-4.64,-4.58,3.57,149.8,-24.15,263.08,3
8999,-4.13,-3.54,3.73,178.16,-31.71,234.85,3
9023,-3.63,-2.54,3.15,208.64,-36.04,208.57,3
9049,-3.62,-1.89,3.28,245.29,-36.22,183.14,3
9073,-3.24,-1.84,2.89,282.97,-36.77,155.28,3
9098,-2.97,-2.12,2.14,316.51,-51.83,126.98,3
9124,-2.84,-2.89,1.38,346.87,-49.76,100.16,3
9148,-2.88,-4.13,0.5,382.97,-54.64,72.84,3
9173,-3.53,-5.78,-0.76,426.45,-54.58,47.78,3
9197,-3.96,-8.8,-2.35,466.26,-63.42,21.19,3
9223,-5.69,-11.12,-4.56,495.9,-87.08,-9.84,3
9247,-8.45,-12.86,-7.4,495.29,-116.89,-23.44,3
9272,-12.11,-12.16,-11.08,475.1,-131.22,-19.42,3
9298,-17.01,-12.76,-13.71,418.95,-97.44,10.89,3
9322,-19.11,-10.55,-15.17,349.44,-5.74,76.01,3
9348,-17.75,-11.38,-16.11,287,8.17,125.77,3
9372,-17.05,-10.46,-16.77,233.83,-49.7,144.3,3
9397,-17.8,-9.59,-17.14,186.81,-95.67,165.09,3
9423,-17.54,-7.71,-17.38,142.97,-143.72,195.4,3
9447,-16.48,-7.78,-17.87,94.8,-173.05,231.68,3
9473,-13.56,-6.2,-16.73,37.67,-165,263.57,3
9497,-9.78,-5.26,-15.05,-14.28,-171.53,272.41,3
9522,-6.94,-4.57,-13.07,-66.78,-156.41,262.84,3
9547,-4.76,-3.12,-10.76,-112.21,-121.95,240.64,3
9572,-3.19,-3.63,-9.71,-161.17,-94.09,213.39,3
9598,-1.41,-2.88,-6.93,-201.96,-73.05,171.92,3
9622,-0.6,-2.1,-5.47,-229.89,-64.27,119.73,3
9647,-0.78,-2.06,-3.93,-252.57,-36.77,72.41,3
9671,-0.75,-1.66,-2.73,-267.69,-4.39,26.38,3
9697,-1.02,-2.3,-2.45,-278.79,12.43,-22.83,3
9722,-2.77,-3.18,-2.31,-294.77,39.14,-63.44,3
9746,-4.05,-4.51,-1.82,-315.38,75.54,-94.6,3
9771,-4.6,-6.72,-1.46,-330.13,89.99,-127.34,3
9796,-6.26,-8.79,-0.9,-344.89,102.49,-159.54,3
9821,-7.7,-10.22,-1.32,-356.41,108.96,-185.21,3
9845,-9.29,-12.51,-1.97,-370.98,95.67,-205.94,3
9871,-10.99,-15.66,-2.09,-385.86,4.51,-215.69,3
9896,-14.51,-17.37,0.41,-405.31,-50.31,-202.22,3
9921,-15.18,-18.72,2.28,-404.46,-157.38,-148.5,3
9946,-16.6,-17.73,3.96,-387.63,-143.66,-72.22,3
9970,-17.29,-19.65,4,-352.94,-101.95,-1.43,3
9996,-17.83,-19.65,5.25,-320.38,-101.16,67.53,3
10021,-17.76,-18.1,7.15,-274.03,-112.99,133.08,3
10046,-17.66,-16.71,8.06,-209.77,-112.14,202.23,3
10071,-16.79,-15.59,8.26,-146.66,-56.71,268.39,3
10096,-14.14,-14.82,7.57,-96.6,-27.75,318.63,3
10121,-11.38,-13.42,7.12,-59.71,-25.67,341.01,3
10147,-8.93,-10.85,7.87,-21.29,-12.57,340.89,3
10171,-6.55,-8.16,8.02,23.65,-14.46,323.93,3
10196,-6.2,-6.33,8.8,72.18,5.48,294.12,3
10220,-4.98,-4.73,7.91,119.44,34.87,268.32,3
10246,-4.2,-3.97,7.04,168.46,33.65,242.96,3
10270,-3.67,-3.5,5.88,211.2,22.56,212.35,3
10295,-3.5,-3.5,4.59,250.29,9.45,180.83,3
10321,-3.27,-3.33,3.65,291.02,-13.85,151.44,3
10345,-3.57,-3.94,2.91,333.09,-31.96,125.77,3
10370,-3.75,-5.23,1.99,374.07,-36.1,107.11,3
10395,-3.86,-6.78,0.99,414.56,-35.86,95.89,3
10420,-4.11,-9.14,-0.44,457.12,-39.94,85.83,3
10445,-4.51,-11.74,-2.42,500.71,-38.42,67.35,3
10470,-5.61,-15.8,-4.12,539.43,-71.89,41.99,3
10495,-9.17,-18.8,-6.13,551.57,-76.16,31.07,3
10519,-13.28,-17.97,-10.09,541.87,-61.71,45.46,3
10545,-18.02,-19.07,-15.63,480.78,-24.21,105.34,3
10569,-19.99,-16.92,-18.05,392.3,-6.28,179,3
10595,-18.19,-16.14,-18.9,313.64,-74.03,220.58,3
10620,-16.49,-14.76,-18.9,251.94,-134.88,230.52,3
10645,-16.57,-13.64,-18.52,187.36,-152.26,236.56,3
10670,-15.93,-10.77,-16.9,140.05,-142.62,251.74,3
10695,-13.19,-8.98,-16.3,84.44,-121.04,269.91,3
10720,-10.08,-7.58,-15.19,27.61,-113.84,276.56,3
10746,-7.23,-6.14,-13.82,-28.3,-97.02,267.96,3
10770,-5.18,-4.69,-11.55,-82.15,-78.11,243.69,3
10795,-3.8,-3.38,-10.22,-129.16,-65.37,204.55,3
10820,-3.47,-2.97,-8.82,-176.84,-34.88,169.61,3
10845,-3.05,-2.86,-6.81,-218.3,-25.19,133.39,3
10871,-3.27,-2.17,-5.44,-252.33,-23.11,91.92,3
10895,-3.85,-3.21,-4.82,-285.01,-28.05,57.17,3
10920,-3.96,-4.36,-3.42,-317.27,8.41,29.18,3
10944,-4.18,-5.01,-2.35,-343.97,2.25,-0.15,3
10970,-3.81,-5.74,-1.48,-362.63,-4.64,-28.44,3
10994,-3.96,-8.09,-1.03,-377.45,-8.05,-53.56,3
11019,-4.15,-9.09,0.53,-392.02,50.48,-79.17,3
11045,-4.52,-9.92,0.2,-398.97,132.49,-115.88,3
11069,-4.62,-12.09,-0.94,-400.31,171.27,-164.78,3
11094,-5.03,-15.03,-1.55,-395.07,135.36,-221.12,3
11119,-7.87,-15.5,-2.17,-391.96,53.04,-262.89,3
11144,-10.42,-18.95,-1.67,-405.74,-52.81,-274.78,3
11170,-12.29,-19.65,-0.28,-417.45,-173.78,-245.08,3
11194,-15.81,-19.65,2.9,-420.19,-194.03,-163.99,3
11220,-17.19,-19.65,4.69,-385.56,-135.43,-69.6,3
11244,-17.85,-19.65,4.85,-331.84,-116.22,16.74,3
11270,-18.63,-19.65,4.45,-284.34,-92.5,102.41,3
11294,-18.84,-19.65,3.66,-229.83,-120.61,185.83,3
11319,-18.35,-18.98,4.39,-174.83,-92.81,264.73,3
11345,-16.76,-18.04,3.72,-126.72,-49.46,337.35,3
11369,-13.98,-17.28,2.79,-95.87,-21.83,389.36,3
11395,-10.9,-14.68,3.17,-71.41,-4.76,405.34,3
11419,-8.82,-12.21,3.38,-48.73,-2.02,394.73,3
11444,-7.25,-9.07,4.39,-20.87,-7.32,373.08,3
11470,-5.7,-6.45,5.41,19.56,-22.08,348.2,3
11494,-5.15,-4.51,5.79,69.07,-11.47,317.59,3
11519,-4.5,-3.42,6.13,121.45,20.97,286.74,3
11544,-4.15,-3.15,5.88,180.9,16.7,262.59,3
11569,-3.54,-3.06,5.63,245.47,4.93,245.64,3
11593,-2.4,-4.29,3.44,310.96,-29.64,227.47,3
11619,-2.05,-5.79,1.73,369.74,-57.26,197.84,3
11644,-1.84,-8.25,0.35,427.85,-87.38,163.75,3
11668,-2.12,-10.23,-1.3,480.04,-125.8,121.74,3
11694,-3.47,-12.67,-3.17,519.25,-162.08,73.51,3
11718,-6.37,-16.26,-4.72,544.86,-175.67,46.44,3
11743,-11.97,-18.66,-7.04,561.38,-113.23,62.29,3
11769,-16.58,-19.28,-9.51,559.62,-82.56,134.48,3
11793,-18.38,-19.65,-14.32,520.1,-31.83,241.13,3
11819,-15.11,-19.65,-18.71,440.59,-9.94,307.35,3
11843,-12.67,-19.65,-19.22,359.86,-111.04,298.02,3
11869,-13.02,-18.14,-19.22,291.14,-151.41,274.12,3
11893,-13.7,-14.68,-19.22,224.62,-162.14,255.7,3
11919,-13.33,-12.29,-19.22,150.47,-141.65,248.33,3
11945,-11.75,-8.49,-18.26,72,-110.73,251.01,3
11969,-9.5,-7.13,-16.48,-4.89,-111.41,247.23,3
11994,-8.16,-6.17,-13.23,-75.13,-95,243.81,3
12019,-6.45,-5.74,-10.25,-130.19,-79.45,239.3,3
12044,-4.7,-5.38,-8,-176.11,-62.87,229.24,3
12069,-3.2,-5.05,-6.39,-214.1,-58.97,205.95,3
12094,-2.61,-4.35,-5.44,-243.18,-58.85,176.92,3
12119,-1.61,-5.16,-4.03,-278.18,-55.43,143.2,3
12143,-1.64,-4.21,-2.43,-306.17,-26.89,101.5,3
12169,-1.13,-4.64,-1.6,-327.94,-8.66,49.06,3
12194,-2.27,-5.31,-0.69,-345.25,0.18,-3.75,3
12218,-2.88,-5.57,-0.52,-363.42,18.11,-53.81,3
12244,-3.92,-9.09,-0.72,-385.92,34.32,-92.65,3
12268,-5.47,-10.53,0.09,-405.31,105.6,-124.17,3
12293,-5.9,-12.55,-0.75,-416.78,137.68,-159.54,3
12318,-6.08,-15.63,-1.49,-426.17,92.43,-197.71,3
12343,-7.41,-17.75,-1.61,-439.22,44.39,-229.84,3
12369,-10.02,-18.76,-0.82,-449.28,-23.11,-236.67,3
12393,-12.4,-19.65,0.25,-453.3,-127.32,-205.33,3
12419,-13.22,-19.65,1.18,-446.59,-196.95,-143.01,3
12443,-15.19,-19.65,3.78,-436.04,-199.33,-65.27,3
12469,-15.13,-19.65,5.19,-392.63,-170.43,8.27,3
12494,-15.36,-19.65,5.34,-325.13,-150.92,70.95,3
12518,-15.85,-19.65,5.93,-261.23,-150.67,131.74,3
12544,-16.6,-18.23,6.41,-198,-156.41,195.46,3
12568,-15.86,-17.28,5.32,-132.33,-126.95,263.32,3
12594,-15.34,-17.08,3.89,-85.5,-81.89,328.81,3
12618,-13.22,-16.51,3.08,-62.27,-46.65,379.18,3
12644,-10.63,-14.42,2.82,-45.93,-32.75,405.76,3
12669,-8.5,-12.23,3.32,-30.13,-19.82,409.79,3
12693,-7.01,-9.76,4.02,-12.76,-3.91,398.26,3
12719,-5.94,-6.64,4.96,16.57,1.58,375.88,3
12743,-4.52,-4.39,5.34,56.69,20.73,343.39,3
12768,-3.09,-2.49,4.93,98.1,-7.75,302.04,3
12793,-2.28,-1.25,4.59,141.82,-42.14,256.37,3
12818,-2.22,-0.69,4.46,186.14,-59.76,212.23,3
12843,-1.97,-0.44,4.5,236.57,-61.16,178.69,3
12868,-1.67,-1.09,3.63,292,-62.14,151.44,3
12893,-1.41,-2.32,2.06,349.56,-81.89,119.91,3
12917,-1.94,-4.83,0.77,404.98,-108.78,86.07,3
12943,-2.65,-7.32,-0.83,455.41,-129.7,56.99,3
12968,-4.36,-11.63,-1.73,502.6,-120.8,41.19,3
12992,-6.29,-13.72,-3.37,545.17,-119.52,48.02,3
13018,-9.91,-17.06,-6.54,578.82,-40.98,80.03,3
13042,-12.65,-19.65,-12.7,567.73,-21.65,142.47,3
13068,-16.74,-19.65,-17.98,483.52,-15.19,213.26,3
13093,-15.39,-17.03,-19.22,407.73,-59.94,270.89,3
13118,-14.41,-17.21,-19.22,310.78,-101.65,293.87,3
13143,-12.44,-15.52,-19.22,234.13,-134.82,301.19,3
13168,-11.99,-14.6,-18.45,189.38,-185.98,286.37,3
13193,-12.8,-13.21,-18.05,152.24,-197.99,273.93,3
13219,-12.82,-10.29,-17.17,103.58,-159.51,276.5,3
13243,-10.65,-7.63,-16.65,49.8,-143.97,275.52,3
13269,-9.19,-6.32,-15.02,-6.66,-136.16,272.84,3
13293,-7.33,-5.39,-12.69,-60.87,-113.3,265.64,3
13319,-5.57,-3.93,-10.37,-105.19,-76.71,247.47,3
13343,-3.66,-2.71,-8.99,-145.07,-66.1,219,3
13368,-2.05,-2.81,-7.37,-185.56,-75.31,186.68,3
13394,-1.58,-1.81,-5.2,-220.56,-61.35,153.39,3
13418,-0.7,-1.07,-3.95,-245.92,-37.63,110.52,3
13443,-0.29,-2.31,-3.22,-271.53,-33.3,63.2,3
13468,-0.46,-2.87,-1.74,-297.33,-21.35,18.08,3
13493,-0.99,-2.66,-0.11,-317.57,3.35,-25.82,3
13518,-2.55,-4.14,0.08,-331.84,24.69,-63.68,3
13543,-2.8,-5.94,-0.1,-348.73,105.97,-114.66,3
13568,-4.13,-7.63,-0.68,-363.48,100.06,-168.01,3
13592,-5.49,-11.15,-1.63,-376.78,82.13,-210.69,3
13618,-8.25,-14.08,-1.65,-401.84,92.13,-233.62,3
13642,-9.85,-15.85,-1.79,-415.8,104.14,-249.41,3
13668,-10.99,-18.01,-2.6,-422.57,65.97,-260.39,3
13693,-12.21,-19.65,-2.72,-433.24,-117.02,-247.16,3
13718,-15.33,-19.65,0.66,-452.26,-212.5,-175.45,3
13743,-16.67,-19.65,2.83,-445.86,-206.77,-75.76,3
13767,-15.44,-19.65,3.42,-402.33,-184.45,6.07,3
13793,-15.77,-19.65,3.97,-354.09,-155.92,71.13,3
13818,-15.32,-19.36,5.16,-299.83,-138.48,128.08,3
13843,-15.52,-17.65,5.42,-237.51,-167.5,182.47,3
13868,-14.28,-16.21,4.92,-170.8,-138.17,231.25,3
13893,-13.82,-15.34,4,-117.76,-104.7,271.98,3
13918,-13.16,-14.67,3.73,-85.13,-69.45,306.56,3
13944,-11.57,-13.13,3.86,-57.15,-48.17,332.41,3
13968,-9.45,-11.18,4.35,-31.29,-33.6,342.41,3
13993,-7.24,-8.57,4.77,0.48,-56.71,331.62,3
14018,-6.13,-6.56,5.4,37.43,-52.69,306.07,3
14043,-5.07,-4.33,5.62,81.02,-50.37,275.76,3
14067,-4.61,-3.03,6.05,126.21,-44.15,244.85,3
14093,-3.8,-2.08,5.99,169.38,-23.72,216.86,3
14118,-3.13,-1.52,5.05,216.33,-27.5,185.76,3
14142,-2.94,-1.24,3.83,262.06,-40.37,155.16,3
14168,-2.83,-1.17,2.54,308.4,-44.09,123.63,3
14192,-3.09,-2.31,1.23,349.01,-60.06,86.19,3
14217,-3.25,-3.5,-0.3,381.57,-69.52,52.23,3
14243,-4.02,-4.92,-1.85,413.52,-72.32,28.45,3
14267,-4.88,-7.54,-2.98,437.24,-40.49,21.99,3
14292,-5.54,-9.67,-3.53,455.53,-7.44,36.99,3
14316,-5.76,-11.94,-3.93,484.68,-19.94,55.28,3
14342,-7.73,-14.94,-4.95,519.07,-23.3,66.8,3
14366,-10.65,-17.33,-8.01,524.8,11.89,97.47,3
14392,-13.16,-17.77,-12.89,493.7,38.04,150.46,3
14417,-14.29,-16.96,-16.99,426.69,27.37,203.02,3
14441,-15.31,-15.59,-17.92,352.12,-23.3,241.25,3
14467,-15.09,-15.86,-17.95,286.57,-29.21,274.85,3
14492,-13.21,-14.95,-19.18,226.63,-100.31,279.18,3
14517,-12.49,-13.5,-18.81,177.97,-149.82,276.74,3
14543,-11.63,-11.06,-18.42,125.11,-140.92,276.31,3
14567,-10.77,-8.21,-17.38,64.99,-131.34,274.67,3
14593,-9.17,-6.9,-15.81,0.9,-89.64,274.85,3
14617,-6.85,-5.88,-14.06,-57.88,-67.14,263.45,3
14642,-5.1,-4.86,-12.29,-109.04,-85.37,236.62,3
14667,-4.6,-3.67,-9.74,-151.96,-108.23,211.13,3
14692,-4.16,-3.08,-7.46,-185.99,-76.59,190.03,3
14717,-3.79,-1.89,-6.39,-216.05,-31.83,164.79,3
14742,-2.74,-3.31,-5.85,-252.57,-12.99,128.02,3
14767,-3.22,-1.7,-3.66,-278.67,-5.98,89.06,3
14791,-3.32,-1.65,-2.78,-299.77,10.24,50.16,3
14817,-3.71,-2.86,-2.78,-321.72,24.87,11.74,3
14842,-4.61,-3.98,-1.74,-344.4,30.24,-19.29,3
14866,-5.15,-3.81,-0.24,-364.58,36.4,-40.57,3
14892,-5.35,-4.31,0.17,-379.7,92.74,-61.12,3
14916,-5.03,-7.59,-0.82,-400.25,124.2,-96.85,3
14941,-5.33,-9.69,-0.68,-423.54,143.29,-138.38,3
14967,-5.64,-12.63,-1.3,-432.2,174.51,-186.24,3
14991,-6.41,-15.04,-2.03,-427.75,186.64,-234.9,3
15017,-7.53,-15.68,-2.06,-408.73,121.76,-282.71,3
15041,-8.84,-18.55,-2.19,-384.22,-33.17,-313.68,3
15066,-10.92,-19.65,-0.82,-387.81,-170.92,-302.95,3
15091,-13.23,-19.65,2.27,-395.62,-213.23,-257.4,3
15116,-14.39,-19.65,3.72,-361.9,-232.87,-187.59,3
15142,-17.3,-19.65,6.33,-306.96,-194.09,-87.89,3
15166,-18.29,-18.61,7.84,-230.8,-148.3,24.42,3
15192,-17.17,-17.92,7.03,-147.88,-107.26,122.47,3
15216,-15.25,-17.57,5.05,-84.71,-75.92,201.37,3
15242,-13.95,-17.21,3.17,-50.44,-45.8,259.85,3
15267,-13.54,-17.41,1.88,-36.48,-7.02,309.73,3
15291,-12.24,-16.36,1.52,-37.09,27.19,352.84,3
15317,-10.44,-14.25,1.94,-38.61,40.91,377.23,3
15341,-9.27,-12.11,2.31,-34.65,49.93,379.24,3
15367,-7.89,-9.8,2.74,-25.74,37.92,367.47,3
15391,-6.54,-6.95,3.6,-3,16.46,349.6,3
15416,-5.76,-4.67,4.01,30.23,-14.52,329.73,3
15441,-5.82,-3.05,4.4,70.84,-39.39,307.84,3
15466,-4.69,-2.28,3.91,115.66,-11.35,288.57,3
15491,-3.59,-0.82,3.52,164.13,-36.53,265.28,3
15515,-3.14,-0.59,2.72,211.45,-48.24,236.31,3
15541,-2.39,-0.7,2.25,256.63,-64.52,207.11,3
15566,-2.17,-1.75,0.96,297,-81.47,175.64,3
15591,-1.95,-3.05,-0.12,340.59,-96.71,146.44,3
15616,-1.37,-3.97,-1.01,384.86,-92.93,119,3
15640,-1.07,-5.9,-2.05,422.42,-144.58,75.16,3
15666,-2.89,-8.81,-4.12,446.39,-195.8,22.96,3
15690,-4.98,-11.16,-5.16,459.19,-221.16,-27.1,3
15715,-9.58,-13.45,-5.04,480.17,-171.04,-63.62,3
15741,-11.6,-14.22,-5.68,512.48,-168.6,-79.78,3
15765,-19.08,-15.12,-9.53,515.47,-159.7,-36.06,3
15791,-20.6,-17.5,-14.77,434.74,-45.92,94.73,3
15815,-20.6,-16.87,-16.81,328.58,25.12,212.11,3
15841,-16.8,-16.24,-16.14,257.48,-84.09,228.94,3
15866,-14.83,-14.62,-13.97,220.41,-149.39,221.8,3
15891,-14.41,-12.96,-14.91,192.67,-161.41,221.8,3
15916,-13.59,-10.61,-14.43,149.01,-175.06,226.56,3
15941,-11.77,-7.86,-13.34,92.91,-134.82,234.79,3
15966,-9.4,-5.93,-12.57,34.93,-91.53,233.45,3
15991,-7.82,-5.12,-11.96,-25.99,-79.39,219.12,3
16016,-7.14,-4.21,-10.2,-83.91,-62.69,205.34,3
16041,-6.27,-3.88,-8.76,-145.74,-24.33,193.87,3
16066,-5.43,-3.72,-6.36,-196.9,-3.42,174.48,3
16091,-5.93,-3.36,-4.58,-241.96,33.65,149,3
16115,-5.16,-3.59,-2.86,-284.46,61.09,113.02,3
16141,-4.07,-3.54,-1.55,-306.29,50.85,69.73,3
16166,-3.41,-3.48,-0.51,-308.36,21.03,27.47,3
16190,-2.74,-2.72,-0.05,-305.25,8.23,-11.25,3
16215,-3.09,-3.45,0.04,-305.13,0.42,-41.43,3
16240,-2.79,-4.46,0.45,-313.97,49.2,-74.6,3
16265,-2.17,-5.59,0.27,-320.8,57.31,-113.13,3
16290,-2.82,-7.13,0.07,-330.07,49.26,-151.31,3
16315,-3.8,-9.21,0.15,-338.91,31.95,-182.34,3
16340,-5.25,-11.61,-0.88,-344.03,26.03,-209.78,3
16364,-7.92,-15.02,-1.46,-356.23,-8.66,-234.78,3
16390,-8.87,-16.96,-0.54,-367.94,-61.77,-246.61,3
16414,-11.04,-19.65,0.05,-387.69,-145.06,-235.82,3
16440,-12.43,-19.65,1.3,-406.35,-230.31,-180.45,3
16465,-13.59,-19.65,3.07,-402.63,-210.37,-96.79,3
16490,-14.09,-19.65,3.96,-375.74,-185.73,-6.06,3
16515,-14.9,-19.65,5.57,-332.75,-145.73,74.18,3
16539,-14.25,-19.65,6.77,-268.79,-132.5,139.97,3
16565,-13.54,-18.25,6.85,-195.13,-130.06,197.96,3
16590,-13.5,-17.19,6.25,-121.41,-107.63,250.7,3
16615,-13.3,-17.15,4.82,-73.85,-61.77,301.19,3
16640,-12.24,-16.02,4.05,-45.32,-19.52,340.89,3
16665,-10.27,-14.35,3.41,-26.11,-7.38,363.45,3
16690,-8.5,-12.14,3.57,-8.67,-7.44,366.86,3
16714,-6.62,-8.63,3.9,16.21,-21.59,352.47,3
16740,-5.42,-6.62,4.18,47.18,-42.69,325.64,3
16765,-5,-4.1,4.78,87.55,-54.7,296.5,3
16789,-4.44,-2.31,4.64,133.71,-32.93,272.53,3
16815,-3.71,-2.16,4.13,171.45,-5.8,253.39,3
16839,-2.94,-1.35,3.5,202.49,20.73,234.12,3
16864,-2.01,-1.16,2.72,238.03,17.25,210.03,3
16889,-1.82,-1.75,2.2,281.14,16.03,185.34,3
16914,-1.64,-2.17,1.3,325.47,-13.91,157.29,3
16939,-0.93,-3.46,0.13,370.84,-47.2,129.06,3
16963,-0.55,-5.36,-0.91,412.06,-105.06,91.62,3
16989,-1.41,-7.13,-1.29,451.32,-137.14,40.22,3
17013,-3.12,-10.15,-2.72,493.09,-200.25,-22.1,3
17039,-6.9,-13.24,-3.94,535.59,-189.27,-77.28,3
17064,-11.41,-16.77,-5.97,534.74,-132.44,-76.61,3
17088,-16.38,-16.92,-9,497.85,-8.42,-7.4,3
17114,-18.33,-17.75,-13.19,454.01,34.81,84.91,3
17138,-17.43,-17.3,-13.75,396.87,9.63,162.11,3
17164,-15.46,-17.06,-14.23,341.33,-41.71,198.08,3
17189,-14.23,-16.54,-14.18,291.14,-73.54,202.17,3
17214,-14.59,-15.56,-14.35,250.41,-94.76,195.95,3
17239,-14.8,-12.87,-14.16,207.55,-84.58,194.55,3
17264,-14.18,-10.15,-14.75,153.89,-82.87,198.39,3
17289,-12.79,-7.94,-14.85,90.41,-70.49,208.14,3
17315,-11.23,-7.23,-14,22.79,-68.54,214.48,3
17339,-9.45,-6.52,-12.13,-41.84,-62.5,216.8,3
17364,-7.65,-5.41,-9.38,-100.07,-49.15,211.74,3
17389,-6.16,-4.59,-7.35,-142.75,-29.76,196.74,3
17414,-4.91,-4.86,-5.79,-177.21,-32.56,174.48,3
17438,-4.34,-3.75,-3.63,-198.18,-35.92,151.5,3
17464,-4.06,-2.95,-2.57,-212.27,-15.49,127.35,3
17489,-3.22,-2.64,-2.1,-223.79,14.45,93.94,3
17513,-2.74,-2.39,-1.46,-236.66,26.64,56.74,3
17539,-2.63,-1.48,-0.57,-245.13,26.09,17.11,3
17563,-2.34,-1.94,-0.28,-248.55,11.09,-22.89,3
17588,-3.87,-2.73,-0.32,-255.92,27.56,-55.94,3
17614,-3.68,-3.6,-0.61,-270.31,42.98,-92.95,3
17638,-3.96,-4.66,-0.7,-288.24,62.5,-132.77,3
17663,-3.72,-7.4,-1.37,-306.72,62.56,-179.23,3
17688,-5.06,-10.32,-1.27,-328.42,33.04,-223.99,3
17713,-6.82,-11.06,-0.77,-340.01,-2.02,-252.46,3
17737,-9.43,-14.18,-1.18,-361.72,-52.87,-254.96,3
17763,-10.87,-17.76,-0.21,-387.51,-97.5,-232.83,3
17788,-13.29,-19.21,1.5,-405.86,-182.14,-186.37,3
17813,-12.88,-19.65,2.83,-401.47,-233.48,-125.51,3
17838,-12.83,-19.65,3.35,-389.15,-268.05,-61.31,3
17863,-14.22,-19.65,4.76,-383.06,-194.58,9.18,3
17888,-14.7,-19.65,7.29,-349.89,-164.64,78.27,3
17914,-14.24,-17.85,8.03,-285.8,-146.1,145.09,3
17938,-13,-16.14,8.22,-210.44,-120.61,203.57,3
17963,-12.58,-15.56,7.77,-141.23,-84.76,253.63,3
17988,-11.4,-14.92,6.77,-90.44,-45.25,290.76,3
18013,-10.02,-13.56,5.74,-53.98,-23.72,311.74,3
18039,-8.95,-12.28,6.08,-26.41,4.51,322.41,3
18063,-7.53,-9.81,7.01,1.94,21.15,321.43,3
18088,-6.46,-7.18,7.71,41.08,13.41,309,3
18113,-5.58,-5.63,8.45,97.73,-20.67,282.78,3
18138,-5.91,-3.91,8.65,161.94,-32.99,257.72,3
18162,-4.98,-4.07,8.14,231.33,-21.47,240.76,3
18188,-3.87,-4.2,7,296.87,5.67,225.95,3
18213,-2.47,-5.36,4.68,353.46,-0.31,201.07,3
18237,-1.57,-6.86,2.91,402.79,-20.37,162.35,3
18263,-1.08,-9.12,1.15,447.24,-55.25,118.02,3
18287,-0.37,-10.49,0.16,490.59,-114.82,63.2,3
18312,-1.49,-13.32,-1.27,536.08,-189.76,-17.89,3
18338,-4.04,-15.02,-2.05,571.63,-181.53,-92.46,3
18362,-6.45,-18.52,-3.33,593.27,-146.95,-130.7,3
18387,-12.72,-19.65,-5.17,577.97,-70.13,-115.21,3
18412,-18.5,-19.65,-8.16,531.81,53.41,-30.39,3
18437,-20.6,-19.65,-12.07,457.6,111.28,73.63,3
18462,-20.6,-16.8,-14.79,364.56,76.46,145.46,3
18487,-18.6,-15.78,-14.07,287.97,4.2,180.03,3
18513,-16.48,-15.08,-13.5,237.85,-28.11,195.03,3
18537,-16.1,-15.33,-13.64,204.62,-75.74,209.12,3
18563,-16.19,-11.85,-14.5,167.42,-68.97,233.63,3
18587,-14.29,-8.59,-14.86,113.22,-89.39,254.36,3
18613,-11.7,-6.95,-13.63,48.52,-68.17,270.28,3
18638,-8.19,-6.57,-11.9,-18.24,-40.06,269.54,3
18662,-5.38,-5.32,-9.79,-69.77,-35.49,245.09,3
18688,-4.06,-3.86,-7.89,-115.26,-63.91,210.28,3
18712,-3.42,-3.14,-6.43,-153.67,-58.05,181.56,3
18737,-2.53,-3,-5.02,-189.58,-33.91,153.08,3
18762,-2.32,-2.3,-3.55,-217.69,-24.88,117.66,3
18787,-2.48,-1.74,-2.72,-238.3,-13.48,77.35,3
18812,-2.72,-2.27,-2.45,-255.86,-4.94,38.21,3
18837,-3.74,-3.25,-1.89,-279.22,7.86,3.45,3
18862,-4.58,-3.22,-1.14,-302.08,41.28,-32.83,3
18886,-4.96,-4.11,-0.66,-318.91,39.75,-73.56,3
18912,-4.77,-6.14,-1.07,-337.45,34.2,-113.38,3
18937,-4.9,-9.13,-0.64,-366.41,7.98,-149.05,3
18961,-4.91,-10.96,-0.01,-393.85,0.24,-182.52,3
18987,-4.31,-14.58,-0.28,-412.51,-36.96,-214.66,3
19011,-6.36,-18.45,-0.19,-439.09,-78.05,-226.85,3
19036,-8.9,-19.65,1.11,-463.91,-111.71,-203.68,3
19061,-9.89,-19.65,1.54,-476.41,-129.94,-162.59,3
19086,-9.76,-19.65,1.8,-482.39,-188.6,-114.17,3
19112,-9.8,-19.65,3.45,-477.02,-232.38,-51.12,3
19136,-10.52,-19.65,5.22,-447.26,-189.58,16.07,3
19162,-10.6,-19.65,5.89,-390.13,-183.11,71.07,3
19186,-10.18,-19.65,6.85,-320.5,-178.84,115.16,3
19212,-10.16,-18.96,7.37,-241.53,-164.88,152.23,3
19237,-10.58,-16.13,7.88,-151.05,-145.37,192.72,3
19262,-10.77,-15.45,7.29,-69.46,-110.98,236.68,3
19287,-10.47,-14.75,6.13,-18.43,-60,273.39,3
19311,-9.26,-13.52,5.07,16.15,-27.87,298.93,3
19337,-7.91,-12,5,37.73,8.47,315.58,3
19362,-6.58,-10.06,5.08,63.83,16.95,318.14,3
19386,-5.39,-8.02,5.53,98.16,23.71,300.21,3
19412,-5.08,-6.18,5.35,133.64,30.97,278.81,3
19436,-4.75,-5,4.88,170.72,40.12,260.89,3
19461,-4.17,-4.07,4.18,211.27,38.84,241.8,3
19486,-3.73,-3.74,3.7,252.18,44.69,220.46,3
19511,-3.17,-3.95,1.79,284.98,51.28,203.94,3
19536,-2.87,-4.24,-0.06,317,42.62,188.63,3
19561,-3.05,-4.59,-1.65,344.68,-1.96,166.56,3
19586,-3.96,-4.88,-1.07,367,19.45,148.81,3
19610,-2.36,-7.11,-2.66,387.24,3.11,148.69,3
19636,-3.32,-9.15,-3.94,428.58,-45.49,134.79,3
19661,-4.12,-10.59,-5.05,466.69,-105,97.66,3
19685,-6.16,-15.2,-6.25,488.89,-120.13,61.31,3
19711,-8.88,-16.74,-6.54,502.42,-100.25,39.36,3
19735,-12.72,-18.08,-9.36,497.06,2.62,48.02,3
19760,-16.01,-19.37,-12.68,453.28,51.76,96.5,3
19785,-16.4,-17.78,-14.43,397.73,57.19,171.92,3
19810,-17.8,-17.57,-16.31,330.96,14.32,237.17,3
19836,-14.69,-16.88,-17.55,261.02,-11.71,269.73,3
19860,-12.33,-14.43,-17.73,203.4,-85.49,264.24,3
19886,-12.06,-12.83,-17.3,151.82,-142.2,257.47,3
19910,-11.71,-10.04,-16.06,96.88,-127.26,267.23,3
19936,-9.83,-8.32,-15.01,43.89,-114.09,272.78,3
19961,-7.83,-6.55,-13.74,-13.43,-109.45,266.13,3
19986,-6.59,-6.04,-11.29,-67.08,-101.41,256.86,3
20011,-4.69,-4.62,-9.28,-117.33,-58.3,241.86,3
20035,-2.82,-3.6,-7.6,-157.82,-54.76,208.14,3
20061,-2.09,-3.03,-6.23,-191.29,-56.28,168.2,3
20085,-2,-2.54,-5.03,-221.29,-45.37,128.69,3
20111,-2.02,-2.66,-3.33,-246.78,-45,91.25,3
20136,-2.16,-2.25,-2.32,-264.77,-37.14,53.69,3
20160,-2.3,-2.71,-1.99,-283.55,-33.85,17.05,3
20185,-2.84,-3.47,-1.48,-307.63,-12.75,-15.45,3
20210,-2.96,-3.63,-0.64,-335.01,21.64,-47.95,3
20235,-2.81,-5.8,-0.4,-367.94,98.59,-94.72,3
20260,-2.42,-9.54,-0.53,-392.94,116.95,-165.27,3
20285,-3.38,-11.66,0.01,-401.23,79.81,-231,3
20310,-4.34,-14.84,-0.18,-401.23,37.8,-277.1,3
20335,-7.32,-16.83,-0.67,-405.86,9.32,-297.28,3
20360,-11.72,-19.05,-0.53,-420.56,-37.44,-285.63,3
20384,-12.21,-19.65,-0.17,-414.7,-120.73,-240.02,3
20410,-13.84,-19.65,1.73,-430.43,-208.48,-159.66,3
20435,-12.53,-19.65,2.05,-417.33,-225.49,-71.79,3
20460,-12.69,-19.65,2.64,-397.2,-175.98,0.03,3
20485,-11.82,-19.65,3.11,-358.79,-140.37,54.42,3
20510,-11.21,-19.65,2.74,-300.86,-129.27,82.96,3
20535,-11.96,-18.52,4.26,-239.28,-149.09,106.56,3
20561,-13.07,-15.11,5.77,-167.82,-166.04,154.85,3
20585,-13.45,-14.05,5.39,-97.02,-117.14,214.61,3
20611,-12.81,-14.4,3.67,-52.57,-59.88,272.59,3
20635,-11.41,-13.83,2.78,-32.88,-11.16,315.21,3
20660,-9.27,-12.3,2.58,-26.48,17.07,341.68,3
20686,-7.45,-10.25,2.72,-18.12,27.98,346.74,3
20710,-6.46,-8.23,3.52,-4.77,46.34,337.17,3
20735,-5.77,-5.8,4.64,14.19,85.91,325.7,3
20760,-4.56,-3.38,4.13,42.12,89.14,308.51,3
20785,-3.74,-1.91,3.76,79.99,74.69,281.37,3
20809,-3.77,-1.22,3.35,118.71,77.25,254.36,3
20834,-3.46,-0.81,2.84,158.95,54.39,227.29,3
20860,-3.68,-0.9,2.74,205.84,47.5,215.64,3
20884,-2.68,-1.19,1.63,260.53,31.34,211.13,3
20910,-2.27,-3.15,-0.06,316.39,-8.6,193.45,3
20934,-2.69,-5.57,-1.41,359.44,-49.64,162.53,3
20959,-3.22,-7.65,-2.55,400.84,-152.81,125.89,3
20985,-4.56,-9.55,-3.9,453.28,-182.14,99.18,3
21009,-7.27,-13.26,-6.12,500.78,-127.75,80.89,3
21034,-11.29,-17.01,-9.82,486.51,-71.47,113.57,3
21059,-13.54,-16.61,-12.11,451.57,15.42,176.01,3
21084,-13.01,-17.75,-14.35,416.14,16.52,235.76,3
21109,-13.61,-18.35,-15.18,366.39,2.86,276.86,3
21134,-12.49,-18.12,-15.79,326.94,-38.36,299.97,3
21160,-11.54,-17.21,-16.88,289.74,-82.75,297.23,3
21184,-12.18,-15.27,-17.69,244.44,-103.54,292.53,3
21210,-11.99,-13.01,-18.38,192.36,-95.67,295.58,3
21234,-9.87,-10.02,-19.22,133.83,-120.13,293.51,3
21260,-7.77,-8.73,-18.26,68.1,-143.84,280.28,3
21285,-5.79,-6.24,-15.69,1.21,-100,262.96,3
21309,-3.17,-6.04,-13.05,-54.34,-86.95,231.37,3
21335,-2.27,-2.83,-11.01,-95.74,-64.64,189.06,3
21359,-1.51,-2.77,-9.41,-141.84,-85.74,147.35,3
21385,-1.75,-1.71,-6.31,-175.99,-76.1,112.41,3
21410,-1.56,-1.07,-4.6,-197.21,-44.58,76.25,3
21434,-1.22,-0.66,-4.59,-214.16,-62.87,34.49,3
21460,-1.63,-2.55,-3.5,-239.52,-91.22,-2.95,3
21484,-2.01,-1.87,-1.96,-259.52,-56.59,-35.64,3
21509,-1.58,-1.66,-2.31,-272.02,-53.48,-79.72,3
21533,-1.71,-5.1,-3.02,-302.51,-98.42,-129.72,3
21559,-3.31,-7.73,-1.56,-344.95,-86.65,-161.85,3
21584,-4.97,-10.11,-0.24,-377.81,-62.93,-179.23,3
21609,-6.04,-12.07,-0.35,-399.28,-65.55,-186.61,3
21634,-7.26,-14.43,-0.3,-419.64,-103.84,-178.87,3
21658,-7.59,-15.19,0.4,-439.52,-139.52,-155.57,3
21684,-7.93,-17.91,1.09,-447.87,-160.37,-113.2,3
21709,-7.83,-19.65,1.16,-448.24,-143.17,-82.77,3
21734,-7.84,-19.65,1.51,-455.31,-172.14,-59.48,3
21759,-8.49,-19.65,3.11,-456.23,-182.69,-31.73,3
21784,-9.52,-19.65,4.46,-431.47,-171.22,-1.61,3
21809,-10.61,-19.65,6.09,-382.08,-170.49,35.83,3
21833,-11.37,-19.65,8.01,-314.52,-179.7,84.24,3
21859,-12.15,-17.75,9.1,-229.64,-156.16,136.56,3
21884,-12.69,-15.64,8.9,-134.89,-132.02,190.52,3
21909,-12.35,-15.42,7.01,-58,-73.66,240.46,3
21934,-11.53,-14.93,4.51,-15.99,-30.74,280.03,3
21959,-10.93,-14.13,3.17,1.39,14.32,309.06,3
21984,-9.12,-12.76,2.69,4.44,30.91,326.07,3
22009,-7.79,-10.27,3,7.79,46.76,330.46,3
22034,-6.51,-8.1,3.78,20.11,45.54,317.78,3
22059,-5.45,-5.33,4.72,41.82,38.71,294.3,3
22083,-5.51,-3.72,4.67,72.49,52.92,274.36,3
22108,-4.93,-2.84,4.34,103.52,53.17,251.8,3
22133,-5.18,-1.48,4.15,135.53,56.09,231.86,3
22158,-4.82,-1.39,3.78,170.17,52.68,222.59,3
22183,-4.5,-1.27,3.37,206.08,64.26,216.25,3
22208,-4.22,-1.85,2.65,246.81,52.74,210.4,3
22233,-3.82,-3.09,2,290.41,62.13,210.89,3
22257,-2.74,-4.57,0.38,333.52,44.39,215.15,3
22283,-1.92,-6.35,-0.71,375.11,19.39,208.08,3
22308,-1.86,-9.61,-2.26,410.84,-37.75,193.57,3
22332,-3.2,-12.72,-3.7,451.45,-77.5,180.83,3
22358,-4.28,-13.59,-6.77,494.56,-103.84,160.95,3
22382,-6.73,-15.42,-11.73,487.42,-188.9,132.41,3
22408,-12.56,-13.63,-13.65,443.82,-212.14,123.45,3
22432,-16.11,-14.45,-14.08,386.26,-75.61,165.83,3
22458,-15.52,-14.62,-14.59,334.13,4.81,219.42,3
22483,-14,-14.41,-15.45,293.58,-81.16,235.09,3
22508,-14.75,-14.18,-15.09,256.02,-131.34,239.91,3
22533,-14.05,-13.84,-15.67,223.77,-123.3,244.36,3
22558,-13.42,-11.58,-16.81,177.06,-107.81,241.56,3
22583,-12.99,-8.25,-16.68,119.86,-130.67,236.98,3
22609,-11.03,-6.58,-14.92,58.65,-106.83,236.98,3
22633,-8.76,-6.54,-13.75,8.77,-96.71,228.57,3
22659,-7.95,-5.62,-12.35,-35.2,-113.66,215.83,3
22683,-7.07,-4.16,-10.44,-78.43,-97.87,206.44,3
22708,-5.68,-3.08,-8.33,-120.62,-62.2,191.13,3
22734,-4.45,-2.45,-7.3,-159.58,-34.33,163.94,3
22758,-3.86,-1.98,-5.59,-195.99,-33.97,132.29,3
22783,-3.34,-1.99,-4.22,-223.55,-38.05,103.2,3
22808,-3.27,-1.76,-3.13,-246.84,-10.43,69,3
22833,-2.81,-2.44,-2.82,-266.29,-7.99,26.92,3
22857,-3.5,-2.95,-2.1,-286.96,-31.59,-7.65,3
22883,-3.73,-2.66,-1.07,-307.33,-32.5,-31.73,3
22908,-3.84,-4.77,-0.53,-327.51,-25.92,-53.81,3
22932,-3.27,-5.63,0.14,-346.72,-4.03,-84.48,3
22958,-2.61,-6.98,0.03,-360.5,-25.61,-122.65,3
22982,-2.99,-10.08,0.37,-378.91,-45.06,-155.51,3
23007,-4,-12.47,0.43,-395.74,-20.8,-180.94,3
23033,-5.39,-15.62,0.55,-411.53,-55.55,-196.55,3
23057,-7.06,-17.78,1.3,-428.73,-75.25,-194.23,3
23082,-8.6,-19.65,1.82,-445.19,-120.73,-176.3,3
23107,-9.17,-19.65,2.82,-455.43,-154.58,-145.63,3
23132,-10.26,-19.65,5.27,-447.93,-212.56,-87.22,3
23157,-11.09,-19.65,7.23,-411.65,-193.42,-25.03,3
23182,-10.84,-19.65,7.03,-350.13,-178.48,27.05,3
23208,-11.38,-19.65,8.4,-279.03,-160.61,75.52,3
23232,-11.77,-18.52,9.03,-198,-146.34,118.27,3
23258,-11.88,-16.21,8.95,-108.49,-136.59,157.35,3
23282,-11.8,-15.1,7.88,-33.55,-103.91,201.19,3
23308,-11.5,-14.89,6.4,14.87,-41.89,248.93,3
23333,-10.57,-15.11,5.01,39.68,6.58,289.85,3
23357,-9.37,-14.6,4.51,52.18,41.89,314.79,3
23383,-8.56,-12.71,4.37,63.95,71.95,328.39,3
23407,-7.01,-10.74,4.19,72.06,98.47,332.84,3
23432,-5.89,-8.42,4.2,86.15,79.51,321.25,3
23458,-5.28,-6.92,4.28,108.89,64.26,300.15,3
23482,-4.9,-5.29,4.02,134.8,77.01,279.61,3
23507,-4.27,-4.48,3.15,156.14,93.17,261.86,3
23532,-3.64,-3.34,2.91,177.61,88.53,242.65,3
23557,-3.18,-2.75,2.56,201.75,80.36,226.98,3
23581,-2.03,-2.73,1.65,228.58,86.95,210.7,3
23607,-1.73,-3.3,0.86,256.08,68.96,188.63,3
23632,-2.08,-2.72,1.05,291.63,43.53,176.56,3
23656,-1.79,-3.93,0.28,340.59,28.78,173.45,3
23682,-0.63,-5.77,-1.13,390.17,-36.1,154.12,3
23706,-1.27,-9.67,-3.19,430.17,-124.52,107.53,3
23731,-4.03,-11.49,-4.34,468.09,-175.92,61.99,3
23757,-7.77,-13.9,-5.55,498.21,-200.49,28.94,3
23781,-12.49,-15.51,-8.54,497.36,-189.15,16.01,3
23807,-18.68,-18.01,-11.19,451.51,-97.5,45.89,3
23831,-19.53,-17.86,-12.62,386.45,17.56,116.44,3
23857,-17.83,-16.01,-12.03,336.26,20.42,171.07,3
23881,-15.61,-15.41,-12.59,298.4,-52.02,185.95,3
23907,-15.1,-15.62,-13.19,255.23,-41.1,189.97,3
23932,-14.29,-13.04,-14.09,204.56,-3.18,194.24,3
23957,-13.4,-9.77,-14.58,150.23,-31.71,198.69,3
23982,-12.02,-8.87,-13.6,97.24,-81.22,209.54,3
24006,-9.92,-8.18,-13.01,49.13,-58.54,226.13,3
24032,-8.05,-6.76,-12.18,-4.95,-66.89,228.51,3
24057,-6.36,-4.73,-11.21,-56.48,-92.69,214.54,3
24081,-5.24,-4.46,-9.29,-107.82,-113.72,196.13,3
24107,-4.76,-3.45,-6.91,-146.84,-77.87,178.33,3
24131,-3.96,-2.62,-5.97,-179.04,-59.7,156.13,3
24157,-3.17,-3.12,-5.34,-215.62,-57.63,130.34,3
24181,-2.83,-4.01,-3.44,-246.96,-65.86,105.83,3
24206,-3.2,-3.43,-1.46,-264.89,-32.38,82.29,3
24232,-2.99,-3.16,-0.64,-278.73,-5.98,52.11,3
24256,-2.9,-3.8,-0.52,-292.69,-22.81,17.84,3
24281,-3.55,-4.52,0.14,-308.12,-12.69,-15.09,3
24305,-4,-5.48,0.74,-323.85,-5.55,-48.5,3
24331,-4.12,-6.96,0.88,-344.58,-25.25,-80.7,3
24356,-4.57,-8.9,1.33,-367.33,0.61,-111.31,3
24380,-4.59,-10.77,1.19,-380.5,32.62,-147.59,3
24406,-5.59,-13.27,0.79,-391.41,47.86,-186.37,3
24430,-7.35,-16.48,0.06,-406.9,44.81,-216.61,3
24455,-9.64,-19.65,0.05,-421.9,35.54,-233.01,3
24480,-11.38,-19.65,1.78,-419.34,40.42,-243.5,3
24505,-12.28,-19.65,1.59,-411.11,-165.06,-213.5,3
24531,-12.65,-19.65,3.64,-402.51,-312.38,-131.98,3
24555,-13.69,-19.65,7.2,-364.34,-235.92,-35.82,3
24581,-13.34,-19.65,7.62,-286.59,-188.3,34.42,3
24605,-13.4,-18.58,7.47,-208.12,-192.38,94.24,3
24631,-12.88,-16.23,6.93,-139.95,-139.94,156.62,3
24656,-11.63,-15.1,5.5,-84.46,-83.78,215.09,3
24681,-10.17,-14.87,4.16,-55.07,-34.94,260.82,3
24706,-8.8,-14.74,3.46,-43.79,4.14,292.59,3
24730,-7.6,-13.4,3.84,-39.95,31.34,307.47,3
24756,-6.63,-11.58,4.18,-29.34,44.45,309.42,3
24781,-6.04,-9.45,4.85,-8,46.52,299.85,3
24805,-6.08,-7.79,4.91,20.17,55.91,286.43,3
24830,-6.9,-6.54,5,48.28,83.29,272.72,3
24855,-6.24,-5.61,4.45,75.6,92.13,268.93,3
24880,-5.54,-4.4,4.17,108.95,62.31,260.46,3
24904,-4.87,-3.65,4.38,156.57,31.46,242.29,3
24930,-4.85,-2.94,4.28,212.67,27.8,220.7,3
24955,-4.36,-3.32,3.31,271.2,33.41,206.8,3
24979,-4.3,-4.83,2.38,333.64,28.53,199.3,3
25005,-4.06,-7.21,0.6,392.61,30.91,201.37,3
25029,-2.93,-9.98,-0.85,448.34,12.25,201.44,3
25054,-2.28,-14.08,-2.03,498.4,-15.86,187.84,3
25080,-2.66,-18.91,-3.93,543.27,-56.22,167.72,3
25104,-4.98,-19.65,-5.96,582.54,-57.75,147.17,3
25130,-8.42,-19.65,-11.27,590.41,-110.13,121.25,3
25154,-16.42,-19.65,-19.13,527.12,-103.11,123.08,3
25180,-19.47,-18.13,-19.22,391.39,-36.53,190.4,3
25204,-17.06,-17.09,-19.22,278.7,59.69,253.45,3
25230,-14.62,-14.94,-19.22,202.18,-32.44,264.42,3
25255,-12.66,-14.73,-18.63,146.45,-56.83,277.35,3
25280,-10.27,-13.08,-15.58,96.08,-124.94,276.62,3
25305,-10.23,-11.04,-13.7,74.38,-172.75,269.48,3
25330,-9.23,-8.84,-12.71,42.61,-157.26,270.34,3
25355,-7.09,-7.42,-11.96,3.1,-117.14,268.08,3
25380,-4.68,-6.47,-10.95,-43.98,-95.06,250.64,3
25405,-3.08,-4.6,-9.23,-84.95,-79.39,218.57,3
25430,-2.02,-2.86,-7.64,-122.88,-49.82,180.83,3
25454,-0.96,-2.15,-7.02,-162.69,-6.22,138.39,3
25480,-0.52,-2.27,-5.54,-204.1,28.04,93.39,3
25504,-0.4,-1.23,-3.88,-239.1,86.95,39.97,3
25529,0.01,-1.8,-3.89,-259.64,105.67,-26.37,3
25555,-0.81,-2.96,-3.52,-274.77,41.58,-89.96,3
25579,-2.43,-5.02,-3.03,-292.27,-6.28,-134.9,3
25604,-3.58,-5.77,-2.59,-313.42,-25,-165.63,3
25629,-4.65,-9.06,-2.56,-335.98,-38.91,-190.39,3
25654,-5.81,-10.72,-1.74,-361.41,-47.81,-205.94,3
25679,-6.06,-14.28,-2.19,-388.67,-57.26,-215.69,3
25704,-6.06,-16.72,-1.25,-418.48,-43.72,-228.07,3
25729,-5.9,-18.7,-0.87,-430.01,-60.31,-245.39,3
25754,-6.61,-19.65,-1.1,-435.31,-100.19,-252.58,3
25779,-8.48,-19.65,0.21,-442.14,-136.59,-243.26,3
25803,-9.72,-19.65,1.22,-436.78,-187.87,-210.63,3
25829,-11.07,-19.65,3.27,-423.67,-226.1,-152.52,3
25854,-11.7,-19.65,5.12,-385.07,-238.17,-87.71,3
25879,-12.79,-19.65,6.73,-324.77,-199.7,-22.65,3
25904,-13.69,-19.65,7.9,-250.31,-182.75,45.46,3
25929,-14.29,-17.22,8.53,-170.44,-145.92,116.62,3
25954,-14.15,-15.91,7.36,-95.32,-86.16,188.26,3
25980,-13.07,-16.27,5.3,-44.59,-41.53,246.62,3
26004,-12.55,-15.83,4.39,-17.82,-2.57,296.01,3
26029,-11.21,-14.92,4.39,1.33,50.54,338.81,3
26054,-10.08,-13.75,3.45,14.74,87.56,364.54,3
26079,-8.21,-11.98,3.11,24.44,100.97,373.57,3
26105,-6.26,-10.26,3.12,30.54,96.28,368.32,3
26129,-5.61,-7.92,3.69,49.74,91.4,353.14,3
26154,-4.65,-6.18,3.3,81.02,111.21,335.15,3
26179,-3.92,-5.14,3.1,110.17,121.09,310.21,3
26204,-4.11,-4.47,2.75,139.13,108.78,287.04,3
26228,-4.59,-3.68,2.8,175.84,95.79,281.19,3
26254,-3.33,-4.51,2,220.84,95.54,285.34,3
26279,-2.45,-6.06,1.5,264.92,104.08,286.92,3
26303,-1.35,-7.1,-0.54,311.45,66.95,287.71,3
26329,-0.68,-9.59,-2.21,364.44,-49.39,271.62,3
26353,-1.16,-11.93,-3.35,411.45,-132.2,238.63,3
26379,-3.75,-14.78,-5,461.51,-205.49,197.35,3
26404,-7.34,-17.32,-7.96,493.58,-169.45,173.63,3
26428,-11.05,-18.37,-12.49,479.49,-97.87,188.75,3
26454,-13.31,-17.96,-15.83,421.93,-18.78,238.63,3
26478,-12.28,-16,-16.91,356.81,-58.24,282.23,3
26504,-12.6,-17.64,-18.03,294.37,-54.64,305.82,3
26528,-10.81,-17,-18.39,232.42,-64.03,307.96,3
26554,-10.02,-17.63,-19.22,176.88,-97.14,296.68,3
26579,-9.63,-14.72,-18.83,120.78,-141.89,277.17,3
26604,-9.88,-12.2,-18.11,71.82,-165.73,260.09,3
26629,-10.17,-9.37,-17.07,14.93,-164.15,254.3,3
26654,-8.97,-8.49,-14.96,-43.43,-143.11,255.95,3
26679,-6.81,-8.05,-12.18,-90.13,-132.62,251.92,3
26705,-5.38,-6.86,-8.83,-133.97,-89.09,238.87,3
26729,-3.66,-5.01,-6.84,-168.18,-61.53,211.8,3
26754,-2.22,-4.59,-5.77,-196.11,-62.2,176.01,3
26779,-1.76,-3.77,-4.12,-220.01,-59.88,139.18,3
26804,-1.64,-2.58,-3.24,-237.39,-50.43,101.62,3
26829,-1.18,-2.62,-3.21,-259.77,-47.02,60.52,3
26854,-1.56,-3.22,-2.18,-287.39,-37.02,19.67,3
26879,-2,-3.47,-1.07,-311.23,-7.32,-20.51,3
26903,-2.43,-4.65,-0.48,-333.06,15.73,-63.93,3
26929,-2.44,-6.92,-0.73,-353.24,8.23,-113.38,3
26953,-4.08,-10.43,-0.67,-383.12,-18.36,-154.23,3
26978,-5.27,-12.76,0.44,-417.45,-2.38,-177.22,3
27004,-5.03,-15.65,0.26,-436.11,16.89,-204.41,3
27028,-5.48,-19.65,-0.61,-451.65,-12.44,-231.3,3
27053,-8.5,-19.65,0.99,-473.18,-45.55,-236,3
27078,-9.39,-19.65,2.37,-477.87,-72.63,-223.62,3
27103,-9.56,-19.65,2.16,-475.5,-261.83,-156.79,3
27129,-11.02,-19.65,4,-470.62,-292.26,-61.79,3
27153,-11.4,-19.65,6.75,-441.23,-224.88,23.02,3
27179,-12.09,-19.65,8.01,-377.63,-188.78,92.66,3
27203,-12.07,-19.65,8.26,-295.31,-163.36,154.48,3
27229,-12.01,-17.7,8.35,-206.53,-129.52,206.31,3
27253,-12.36,-15.87,7.48,-125.5,-78.17,251.43,3
27279,-11.72,-15.68,5.41,-73.91,-31.41,294.85,3
27304,-10.98,-14.95,4.07,-49.65,18.71,329.12,3
27328,-9.9,-13.8,3.34,-38.12,63.35,350.4,3
27354,-7.7,-11.74,3.19,-34.4,69.87,353.2,3
27378,-6.54,-9.02,3.67,-23.12,57.62,337.17,3
27403,-5.56,-6.53,4.33,3.71,37.74,311.8,3
27429,-5.2,-4.39,4.73,46.63,25.67,282.72,3
27453,-4.99,-2.95,4.96,95.35,27.68,254.24,3
27478,-4.85,-2.45,4.57,144.01,22.19,228.81,3
27502,-5.08,-1.99,4.22,195.11,9.26,206.68,3
27528,-4.63,-2.73,3.56,250.84,1.76,192.35,3
27552,-4.51,-4.32,2.71,306.08,12.19,181.68,3
27577,-4.45,-5.89,1.63,360.29,7.56,176.56,3
27603,-4.25,-9.13,1.06,420.59,-16.59,173.69,3
27627,-3.63,-11.55,-0.19,485.53,-46.35,171.19,3
27652,-4.47,-16.2,-2.71,543.4,-114.76,143.02,3
27677,-7.31,-19.65,-5.58,565.84,-112.63,122.47,3
27702,-10.43,-19.65,-8.61,561.93,-37.38,134.3,3
27728,-13.2,-19.65,-12.61,528.76,-10.8,171.07,3
27752,-16.08,-19.65,-15.71,464.68,-21.22,222.78,3
27778,-15.66,-19.65,-17.78,382.73,60.91,282.35,3
27802,-12.22,-19.65,-18.35,307.85,21.76,300.58,3
27828,-11.97,-18.61,-19.07,243.16,-30.37,290.7,3
27853,-11.68,-16.73,-19.2,174.8,-53.36,281.98,3
27878,-11.04,-13.34,-17.82,118.83,-68.78,281.25,3
27903,-9.65,-10.68,-17.24,62.36,-104.27,283.51,3
27928,-8.31,-9.01,-15.5,1.51,-108.3,284.24,3
27953,-6.24,-7.58,-12.82,-52.57,-99.33,277.23,3
27977,-3.93,-6.83,-10.62,-98.37,-78.97,257.84,3
28003,-2.63,-5.37,-8.63,-136.66,-47.99,228.08,3
28028,-1.81,-4.13,-7.26,-171.78,-56.47,191.86,3
28052,-1.2,-3.27,-5.58,-202.63,-74.33,156.19,3
28078,-1.01,-2.23,-3.74,-222.82,-95.86,118.08,3
28102,-1.26,-1.47,-2.87,-234.34,-108.11,83.08,3
28128,-1.76,-1.32,-1.97,-252.21,-79.27,55.46,3
28153,-1.66,-1.65,-1.23,-272.57,-43.97,24.73,3
28177,-1.77,-2.33,-0.61,-290.07,-35,-9.23,3
28202,-2.6,-3.23,0.03,-309.77,-24.58,-41.31,3
28227,-3.76,-3.8,0.37,-336.17,-14.52,-67.04,3
28252,-3.52,-5.99,0.22,-368.48,9.87,-89.48,3
28276,-2.76,-10.06,0.52,-398.12,13.35,-120.21,3
28302,-3.85,-12.24,1.52,-423.42,33.59,-154.54,3
28327,-4.48,-14.99,0.83,-440.68,45.91,-193.5,3
28351,-4.97,-19.65,-1.24,-462.69,2.62,-230.88,3
28377,-7.81,-19.65,-0.17,-494.03,-71.89,-241.18,3
28401,-10.46,-19.65,2.75,-513.3,-95.31,-224.84,3
28427,-11.04,-19.65,3.99,-510.8,-216.34,-162.34,3
28452,-12.38,-19.65,6.59,-490.98,-243.9,-70.76,3
28477,-11.89,-19.65,9.28,-423,-225.67,13.02,3
28502,-12.21,-19.65,9.73,-318,-206.71,86.8,3
28526,-11.52,-19.65,8.53,-206.11,-186.34,142.9,3
28552,-12.08,-17.19,7.8,-99.89,-167.01,180.52,3
28576,-11.35,-15.56,5.87,-20.68,-122.93,218.87,3
28602,-10.77,-15.68,3.8,16.02,-54.15,268.75,3
28627,-10.94,-16.3,2.26,12.12,28.96,312.53,3
28652,-9.56,-15,2.04,-7.63,74.87,349.79,3
28677,-7.91,-13,2.22,-21.96,88.53,368.57,3
28701,-6.6,-10.96,2.78,-22.63,90.6,365.7,3
28727,-5.95,-8.7,2.83,-18.49,70.91,353.08,3
28752,-5.14,-6.68,3.31,-7.76,52.74,338.08,3
28776,-5.3,-4.78,3.18,18.4,4.63,324.12,3
28801,-4.24,-3.44,3.01,50.29,8.59,303.69,3
28826,-3.73,-1.73,3.16,86.94,3.78,277.35,3
28851,-3.46,-0.41,3.07,133.89,-4.03,246.92,3
28875,-3.03,0.17,2.66,184.86,-18.78,214.91,3
28901,-2.73,0.11,1.58,240.72,-45,181.56,3
28926,-2.68,-1.09,0.95,294.01,-93.91,148.63,3
28950,-2.9,-2.67,0.34,349.86,-94.88,115.89,3
28976,-2.69,-4.84,-1.31,414.98,-160.19,80.77,3
29000,-3.59,-8.25,-1.62,470.96,-223.36,33.51,3
29025,-5.79,-12.53,-2.68,518.76,-220.98,-18.2,3
29051,-9.13,-18.92,-4.57,555.59,-130.73,-45.88,3
29075,-12.93,-19.65,-7.92,561.14,3.9,-17.83,3
29100,-16.47,-19.65,-10.76,521.57,79.26,54.91,3
29125,-17.91,-19.31,-12.02,476.93,133.23,153.63,3
29150,-16.88,-19.65,-13.63,411.39,143.47,256.8,3
29176,-13.04,-19.65,-14.98,342.79,133.35,313.75,3
29200,-10.12,-16.7,-17.17,279.13,-25.37,294.42,3
29226,-10.53,-13.99,-17.45,211.63,-36.22,274,3
29250,-9.12,-12.76,-17.14,137.91,-37.26,268.02,3
29276,-7.84,-12.07,-15.36,81.02,-103.48,256.56,3
29300,-7.71,-10.2,-13.39,45.05,-113.66,245.58,3
29326,-7.49,-8.33,-12.55,7,-99.82,236.56,3
29351,-6.88,-6.35,-12.06,-35.5,-80.49,226.37,3
29375,-5.42,-5.7,-10.85,-84.83,-61.89,214.61,3
29401,-4.45,-4.29,-8.71,-129.34,-52.81,195.03,3
29425,-3.65,-3.37,-6.96,-169.4,-37.32,170.64,3
29450,-3.05,-2.61,-5.98,-201.47,-30.67,142.17,3
29476,-2.06,-3.4,-5.4,-229.03,-40,111.68,3
29500,-2.09,-3.01,-3.74,-255.56,-48.85,81.8,3
29525,-1.81,-2.21,-2.75,-273.79,-37.5,45.52,3
29550,-1.78,-2.4,-2.23,-290.56,-37.81,2.53,3
29575,-1.69,-3.84,-1.9,-308.36,-64.03,-39.48,3
29599,-2.91,-4.56,-0.9,-331.05,-86.71,-71.61,3
29625,-3.85,-5.57,-0.13,-358.06,-68.97,-94.23,3
29650,-4.24,-8.33,-0.2,-384.89,-52.69,-115.94,3
29674,-4.86,-11.56,0.37,-411.04,-52.69,-132.16,3
29700,-6.07,-13.12,1.07,-431.84,-40.61,-142.16,3
29724,-6.57,-15.51,0.84,-447.63,-38.78,-144.96,3
29750,-6.37,-19.45,0.25,-465.56,-66.89,-148.07,3
29775,-7.9,-19.65,1.94,-488.42,-122.32,-138.2,3
29799,-9.26,-19.65,3.84,-495.43,-151.1,-114.96,3
29825,-8.96,-19.65,5.38,-485.31,-209.33,-81.85,3
29849,-8.55,-19.65,6.66,-449.46,-231.22,-36.12,3
29875,-8.37,-19.65,8.12,-389.34,-247.01,13.27,3
29899,-8.38,-19.65,8.42,-320.01,-256.34,50.46,3
29924,-8.42,-18.99,8.97,-237.45,-261.1,87.66,3
29950,-9.25,-15.48,9.83,-142.39,-218.42,127.96,3
29974,-9.64,-14.03,9.3,-45.68,-147.38,170.46,3
30000,-9.71,-14.61,7.52,20.48,-82.75,213.94,3
30024,-9.09,-14.37,5.54,53.1,-47.69,255.34,3
30049,-8.5,-14.02,4.35,67.24,-3.36,289.97,3
30075,-7.88,-13.41,4.11,66.45,21.95,316.37,3
30099,-6.72,-11.87,3.77,60.84,50.67,333.14,3
30124,-5.55,-9.78,3.94,58.22,57.13,336.68,3
30149,-4.51,-7.81,4.23,64.44,60.12,322.65,3
30174,-4.13,-5.55,5.28,84.13,65.54,294.79,3
30199,-3.73,-4.08,5.14,112.61,67.25,264.97,3
30224,-3.35,-2.44,4.9,147.67,47.98,232.59,3
30249,-3.16,-1.4,4.7,189.19,12.19,194.97,3
30273,-3.08,-0.57,4.15,237.42,1.03,157.23,3
30299,-3.19,-1.01,3.41,285.72,-8.48,120.77,3
30323,-3.43,-1.39,2.36,333.46,-48.91,85.46,3
30348,-3.45,-2.68,1.12,387.06,-135.37,43.63,3
30374,-4.4,-4.48,0.33,437.18,-211.53,-6.67,3
30398,-6.45,-7.24,0.77,454.92,-191.65,-48.81,3
30423,-7.1,-11.56,0.1,480.96,-70.13,-75.7,3
30448,-7.67,-14.81,-0.71,521.45,20.73,-88.07,3
30473,-9.43,-18.71,-3.21,540.1,57.25,-80.57,3
30498,-11.3,-18.69,-6.4,530.47,-11.83,-73.32,3
30523,-14.91,-19.37,-7.79,485.53,3.29,-45.45,3
30548,-16.67,-17.92,-7,438.52,136.52,21.13,3
30572,-16.58,-17.12,-8.57,405.96,196.82,92.59,3
30598,-16.81,-17.4,-11.91,358.83,90.54,135.64,3
30622,-17.88,-15.07,-13.49,299.86,-24.09,167.72,3
30648,-17.7,-14.41,-13.15,232.12,-35.92,203.94,3
30673,-15.17,-13.42,-13.12,182.55,-36.83,232.96,3
30698,-13.55,-12.65,-14.22,141.88,-101.53,252.53,3
30723,-13.03,-10.28,-14.2,88.71,-126.34,268.81,3
30748,-10.69,-8.61,-13.72,28.28,-114.94,278.87,3
30773,-8.02,-7.32,-11.51,-27.21,-97.99,277.11,3
30799,-6.3,-6.65,-9.82,-75.8,-75.8,266.68,3
30823,-4.72,-5.84,-8.47,-126.6,-48.6,250.76,3
30848,-3.57,-4.68,-6.7,-176.54,-32.44,225.15,3
30873,-2.11,-3.9,-4.97,-220.13,-6.77,190.52,3
30898,-1.73,-4,-3.63,-255.19,17.19,146.19,3
30922,-1.85,-4.05,-2.3,-288.55,27.19,100.52,3
30948,-2.24,-3.45,-1.26,-318.12,53.23,51.31,3
30973,-2.99,-4.75,-0.87,-344.03,58.84,-0.51,3
30997,-4.4,-6.38,-0.28,-367.81,47.37,-43.38,3
31023,-6.11,-8.13,0.76,-386.11,18.17,-69.9,3
31047,-6.95,-8.6,1.27,-398.42,-12.2,-75.45,3
31072,-7.21,-9.43,1.36,-413.97,12.13,-77.65,3
31097,-5.89,-12.49,1.67,-427.26,4.87,-82.04,3
31122,-5.68,-14.88,1.25,-446.04,28.84,-105.03,3
31147,-6.15,-18.14,0.71,-460.07,16.03,-143.74,3
31172,-6.73,-19.65,1.22,-477.75,-36.1,-169.6,3
31197,-8.31,-19.65,2.24,-488.48,-75.13,-175.88,3
31221,-8.79,-19.65,4.01,-480.74,-139.39,-163.01,3
31247,-11.01,-19.65,7.02,-465.98,-228.48,-113.44,3
31272,-12.31,-19.65,11.27,-406.84,-221.16,-39.84,3
31297,-12.97,-19.65,13.66,-300.07,-199.21,32.96,3
31322,-12.54,-15.64,14.32,-169.71,-144.64,94.18,3
31347,-12.4,-14.11,11.95,-39.1,-126.22,142.96,3
31372,-12.4,-14.95,8.31,48.71,-76.22,186.8,3
31398,-11.96,-14.62,5.58,88.34,-31.59,236.25,3
31422,-10.99,-14.44,3.81,98.34,16.95,284.48,3
31448,-9.64,-13.85,2.97,89.5,68.78,321.07,3
31472,-8.03,-12.72,2.8,75.23,82.56,339.42,3
31497,-6.53,-11.16,3.36,67.85,86.03,338.93,3
31523,-5.82,-9.06,4,69.5,91.7,328.93,3
31547,-4.81,-7.37,4.43,81.94,85.3,318.87,3
31572,-4.75,-6.25,4.55,108.52,84.87,303.26,3
31596,-6.86,-5.08,4.93,140.78,155.06,285.89,3
31622,-5.42,-4.98,3.12,171.51,188.71,286.07,3
31646,-4.21,-4.85,1.68,202,111.34,285.28,3
31672,-3.17,-4.26,1.77,238.89,27.01,265.52,3
31697,-2.8,-4.4,2.5,294.37,8.47,238.02,3
31721,-2.27,-6.51,1.23,352.91,14.57,211.56,3
31747,-2.06,-8.22,-0.39,405.59,-32.99,182.78,3
31771,-2.49,-11.75,-2.34,449.01,-102.56,145.4,3
31796,-3.26,-14.17,-3.49,484.86,-150.31,102.84,3
31822,-6.84,-16.67,-5.13,511.93,-164.51,68.08,3
31846,-11.33,-18.25,-8.72,521.14,-80.43,70.7,3
31872,-14.35,-19.65,-13.49,481.57,-39.52,116.01,3
31896,-16.03,-19.42,-14.75,420.04,39.75,176.62,3
31922,-15.36,-19.44,-16.24,374.98,-5.13,227.84,3
31946,-15.39,-19.65,-17.09,325.05,-54.27,256.31,3
31972,-14.44,-19.65,-17.34,265.23,-33.97,282.35,3
31997,-12.59,-18.28,-17.23,207.18,-35.49,297.84,3
32022,-10.67,-15.05,-16.93,154.19,-101.16,299.36,3
32047,-9.7,-12.34,-16.48,103.71,-174.39,294.3,3
32072,-8.84,-10.1,-14.69,52.55,-156.16,295.09,3
32097,-7.11,-8.59,-13.3,1.76,-138.11,289.73,3
32122,-5.52,-6.44,-11.56,-48.91,-119.45,274.79,3
32147,-4.47,-5.17,-9.75,-99.04,-97.63,256.86,3
32172,-3.07,-4.85,-7.95,-146.17,-74.52,235.76,3
32197,-2.76,-3.82,-5.92,-186.78,-58.78,205.4,3
32222,-2.43,-2.9,-4.12,-218.67,-64.45,171.86,3
32247,-2.38,-2.31,-2.44,-242.08,-94.7,140.83,3
32272,-2.7,-1.99,-1.38,-262.27,-72.87,115.16,3
32297,-2.42,-2.65,-0.25,-289.89,-33.05,91.19,3
32321,-2.48,-2.8,0.67,-316.96,-13.85,59.61,3
32347,-3.04,-4.6,1.72,-340.44,-24.21,29.24,3
32371,-3.69,-4.54,2.94,-364.7,-20,6.25,3
32396,-3.8,-6.7,2.38,-387.57,20.06,-14.36,3
32421,-3.8,-10.15,2.12,-417.39,57.68,-43.32,3
32446,-4.7,-12.56,2.7,-441.78,66.52,-79.6,3
32471,-5.1,-14.81,2.42,-451.9,77.68,-117.65,3
32495,-5.32,-18.59,1.27,-455.86,77.74,-154.66,3
32521,-8.01,-19.65,2.01,-463.54,61.52,-187.71,3
32546,-10.82,-19.65,3.17,-453.79,-44.58,-201.67,3
32571,-11.83,-19.65,5.79,-441.17,-197.26,-169.17,3
32596,-13.43,-19.65,8.48,-414.28,-285.25,-58.56,3
32621,-12.22,-19.65,9.65,-349.7,-271.47,46.5,3
32646,-10.63,-19.65,9.87,-278.61,-252.99,128.75,3
32671,-9.55,-19.65,10.15,-192.94,-181.04,190.58,3
32696,-9.01,-18.55,9.9,-103.06,-144.09,232.84,3
32722,-8.53,-16.7,8.37,-26.72,-90.43,265.22,3
32746,-7.83,-16.63,6.07,15.72,-47.38,298.87,3
32771,-7.02,-16.54,5.1,28.83,17.62,329.54,3
32796,-6.21,-14.67,5.31,30.78,60.24,347.65,3
32821,-6.32,-12.75,5.66,36.39,87.37,349.73,3
32846,-5.48,-10.9,5.58,44.93,111.4,340.64,3
32871,-4.79,-8.1,5.82,58.95,107.74,321.01,3
32896,-4.12,-5.49,5.93,83.22,58.9,293.45,3
32920,-4.2,-3.61,6.17,124.01,39.08,261.92,3
32946,-4.87,-2.1,5.44,166.88,63.41,237.59,3
32970,-3.73,-2.46,3.69,199.25,68.23,222.11,3
32995,-3.24,-1.12,3.21,233.46,45.42,201.86,3
