t_ms,ax,ay,az,gx,gy,gz,label
5,2.29,-1.92,-9.67,-4.28,-7.38,0.77,3
29,2.37,-2,-9.49,-6.41,6.28,0.34,3
53,2.48,-1.98,-9.46,-6.11,8.11,0.52,3
78,2.3,-1.85,-9.24,-5.87,-4.7,2.96,3
102,2.28,-1.66,-9.18,-7.21,2.31,7.6,3
127,2.81,-1.54,-9.14,-8.18,10.73,8.14,3
152,3.22,-1.61,-9.26,-9.4,11.89,2.96,3
177,3,-1.77,-8.98,-8.67,3.65,-2.1,3
201,2.46,-1.56,-8.67,-7.45,-2.32,-3.68,3
226,2.4,-1.35,-8.55,-4.1,3.17,-3.75,3
251,2.4,-1.57,-8.64,1.39,4.32,-3.44,3
275,2.27,-1.6,-8.95,4.56,-4.94,-2.16,3
300,2.08,-1.58,-9.07,4.62,0.36,0.52,3
324,2.1,-1.43,-9.2,3.28,9.69,4.3,3
349,2.67,-1.46,-9.44,2.91,20.3,7.23,3
373,3.11,-1.65,-9.88,2.12,8.59,6.68,3
398,3.26,-1.73,-10.05,-0.74,-5.07,3.94,3
423,2.95,-1.69,-9.86,-4.34,-7.87,1.07,3
447,2.68,-1.72,-9.59,-8.73,-3.3,-0.27,3
472,2.66,-1.62,-9.31,-11.17,2.86,-0.27,3
496,2.43,-1.38,-9.23,-12.39,-2.99,-0.09,3
521,2.13,-1.18,-9.05,-13.24,0.24,1.62,3
546,2.16,-1.2,-8.93,-13.55,7.5,2.47,3
570,2.36,-1.36,-8.87,-12.88,8.17,2.66,3
595,2.43,-1.28,-8.76,-11.05,1.15,2.96,3
619,2.28,-1.23,-8.66,-8,-1.22,4.55,3
644,2.33,-1.19,-8.76,-5.74,1.64,6.62,3
668,2.56,-1.19,-8.81,-5.87,3.35,7.9,3
693,2.76,-1.38,-8.91,-6.23,3.59,7.66,3
718,3.01,-1.38,-9.16,-6.29,2.56,7.11,3
742,2.98,-1.26,-9.01,-7.88,-2.93,5.83,3
767,2.92,-1.21,-8.55,-8.24,-2.87,3.94,3
791,2.65,-1.12,-8.16,-3.91,2.98,1.68,3
816,2.64,-1.06,-8.51,0.35,7.98,0.89,3
840,2.79,-0.95,-8.93,2.73,4.08,1.25,3
865,2.89,-0.94,-8.86,3.71,-5.68,1.01,3
890,3.07,-1.14,-8.86,5.48,-1.71,-1.43,3
914,3.03,-1.09,-8.93,8.28,4.93,-3.38,3
939,3.08,-1.06,-8.96,10.72,-1.83,-3.2,3
963,3.12,-1.04,-8.86,12.43,-3.18,-2.59,3
988,3.05,-1.07,-8.85,14.01,1.89,-2.59,3
1012,3.11,-1.23,-9.05,14.68,0.42,-4.36,3
1037,2.73,-1.14,-9.22,14.38,4.63,-4.11,3
1063,2.53,-1.31,-9.13,14.38,18.04,-1.43,3
1087,3.02,-1.37,-9.19,15.84,38.9,-0.15,3
1112,3.81,-1.48,-9.74,20.6,37.31,-0.57,3
1136,4.24,-1.63,-10.14,24.38,11.34,-5.15,3
1161,4.17,-1.65,-10.36,25.23,-4.39,-9.78,3
1186,3.94,-1.51,-10.05,21.82,15.18,-12.71,3
1211,4.4,-1.57,-9.76,18.1,31.28,-18.68,3
1236,4.44,-1.79,-9.22,17.73,19.26,-26.37,3
1260,3.8,-1.57,-8.56,20.11,0,-29.17,3
1285,3.78,-1.8,-8.16,23.89,3.72,-30.39,3
1309,3.55,-1.87,-7.97,27,-3.6,-30.82,3
1334,2.95,-2.13,-7.93,28.83,-23.72,-29.42,3
1360,2.15,-2.17,-7.74,26.76,-40.8,-24.66,3
1384,1.36,-2.54,-7.47,23.58,-36.71,-18.26,3
1409,1.31,-2.83,-7.72,19.68,-10,-11,3
1433,2.03,-3.03,-8.68,16.08,5.79,-5.94,3
1458,1.56,-3.12,-9.57,6.69,-24.46,-0.51,3
1482,1.17,-3,-9.41,-4.16,-22.08,7.29,3
1508,1.55,-3.04,-9.1,-10.32,5.85,13.51,3
1533,2.11,-2.61,-8.87,-10.87,13.78,16.62,3
1557,2.87,-2.44,-8.73,-5.62,4.08,17.41,3
1582,3.1,-2.22,-8.64,-0.62,-9.09,16.56,3
1606,3.15,-2.1,-8.87,1.63,-12.57,14.97,3
1631,3.48,-2.02,-8.89,2.24,1.34,12.66,3
1656,3.82,-2.02,-8.91,2.79,-0.68,8.33,3
1680,3.69,-2.09,-9.18,2.67,-5.49,4.3,3
1705,3.47,-2.16,-9.13,0.9,-6.96,1.86,3
1729,3.36,-2.3,-9.01,0.41,-0.49,0.28,3
1755,3.28,-2.44,-9.02,1.02,-0.31,-0.21,3
1779,3.01,-2.42,-9.02,0.9,-4.46,-0.03,3
1804,2.91,-2.45,-9.11,-0.01,-3.66,1.56,3
1829,3,-2.42,-8.91,-2.15,-0.86,1.68,3
1853,3.1,-2.48,-8.75,-2.45,3.11,0.58,3
1878,3.02,-2.42,-8.65,-0.44,4.26,0.22,3
1902,2.98,-2.41,-8.66,2.24,-3.11,-0.7,3
1927,3.05,-2.22,-8.96,2.91,-1.22,-2.28,3
1951,3.2,-2.49,-9.31,1.39,1.64,-4.48,3
1976,3.03,-2.4,-9.32,0.35,2.37,-5.82,3
2001,3.06,-2.29,-9.41,0.11,2.98,-6.98,3
2025,3.28,-2.37,-9.67,-1.48,-0.55,-7.95,3
2050,3.14,-2.44,-9.64,-3.67,-3.05,-8.62,3
2074,3.39,-2.35,-9.69,-4.4,8.96,-9.78,3
2099,4.31,-2.17,-10.39,-6.41,21.21,-13.56,3
2123,5.05,-2.21,-11.27,-10.56,27.01,-21.86,3
2149,5.63,-2.36,-11.89,-11.66,32.01,-33.2,3
2174,5.33,-2.03,-12.41,-16.17,14.51,-44.35,3
2198,5.39,-1.9,-13,-25.13,30.79,-52.16,3
2223,5.67,-2.2,-13.62,-38.67,52.13,-63.26,3
2248,5.56,-2.31,-14.05,-53.98,83.17,-74.54,3
2273,6.6,-2.1,-15.95,-80.32,149.08,-91.24,3
2298,7.99,-2.46,-16.14,-112.88,139.75,-111.67,3
2323,7.15,-2.67,-15.28,-144.4,111.76,-129.6,3
2348,5.8,-2.91,-13.41,-171.78,104.69,-139.05,3
2372,4.26,-2.67,-10.83,-191.66,127.56,-147.04,3
2398,2.8,-2.35,-7.71,-198.3,140.85,-151.49,3
2423,0.48,-1.67,-4.95,-181.47,124.69,-144.66,3
2448,-2.03,-1.51,-4.16,-158.85,74.87,-126.67,3
2473,-4.74,-1.37,-3.78,-149.04,82.13,-89.29,3
2497,-6.35,-0.75,-3.68,-142.88,73.23,-33.75,3
2522,-6.99,-1.23,-3.65,-139.34,39.87,32.96,3
2547,-5.35,-1.85,-3.01,-133.24,2.37,103.88,3
2572,-3.33,-2.8,-2.74,-119.46,-57.38,163.2,3
2597,-2.13,-4.32,-2.64,-105.87,-134.39,218.75,3
2622,-0.89,-5.06,-2.61,-92.27,-141.34,269.73,3
2647,1.18,-6.05,-2.44,-84.22,-148.42,316.86,3
2671,5.13,-7.46,-2.56,-68.55,-185.92,361.49,3
2697,8.16,-9.15,-3.33,-41.48,-269.57,392.04,3
2722,12.19,-11.32,-6.08,-13.06,-283.36,405.64,3
2746,15.37,-10.59,-10.88,-9.04,-188.84,385.95,3
2772,13.78,-11.39,-14.27,-36.05,-183.97,351.86,3
2796,13.77,-13.44,-18.06,-94.16,-29.88,321.31,3
2822,17.39,-13.05,-19.22,-173.3,182.92,277.41,3
2846,18.6,-11.52,-18.54,-226.23,-20.92,220.34,3
2871,17.52,-12.56,-18.63,-281.23,-114.82,178.51,3
2897,16.65,-10.9,-15.93,-333.97,0.18,135.64,3
2921,17.02,-9.3,-12.79,-363.3,1.03,68.45,3
2947,16.7,-8.03,-9.94,-367.81,-57.38,5.77,3
2971,15.23,-6.85,-6.56,-362.33,-80.19,-50.51,3
2996,13.87,-4.97,-1.42,-325.56,-86.41,-103.74,3
3022,12.62,-3.11,1.89,-260.8,-88.24,-157.46,3
3046,11.41,-2.35,3.38,-194.4,-28.66,-216.98,3
3071,10.39,-2.67,4.09,-108.43,48.04,-276.06,3
3096,9.13,-4.05,3.81,-26.78,42.37,-322.16,3
3121,7.15,-6.29,2.39,30.35,40.36,-369.23,3
3145,4.95,-7.27,0.51,76.51,162.98,-399.05,3
3170,7.06,-10.26,-0.4,138.28,252.55,-413.01,3
3196,4.83,-11.75,-1.44,205.9,136.7,-416.36,3
3220,2.61,-13.01,-3.59,226.57,73.47,-426.24,3
3246,2.71,-14.01,-3.24,249.44,277.92,-421.91,3
3270,6.15,-17.83,-3.97,313.89,381.33,-393.68,3
3295,9.05,-18.99,-6.66,397.97,284.38,-359.9,3
3321,10.23,-19.65,-11.49,439.56,8.9,-362.16,3
3345,2.79,-19.65,-17.16,383.22,-223.84,-394.29,3
3371,-2.74,-19.44,-19.22,245.59,-71.65,-391.3,3
3395,-2.87,-19.17,-19.22,145.66,26.52,-338.74,3
3420,-1.49,-19.41,-19.22,20.9,-89.76,-288.99,3
3445,-0.6,-19.65,-19.22,-98.06,-51.04,-243.26,3
3470,-0.67,-18.12,-19.22,-211.96,-56.71,-209.11,3
3496,-0.51,-16.97,-19.22,-320.01,-77.81,-182.16,3
3520,0.06,-16.32,-19.22,-388.55,-13.72,-165.76,3
3545,-1.66,-14.11,-15.56,-414.76,-11.77,-158.32,3
3570,-4.48,-11.3,-9.78,-410.37,-19.94,-131.55,3
3595,-7.25,-8.67,-5.49,-382.69,8.23,-88.38,3
3620,-8.99,-6.83,-2.93,-347.39,46.46,-38.26,3
3645,-8.78,-6.02,-0.46,-302.33,60.79,15.28,3
3670,-8.74,-5.07,1.87,-239.03,7.13,74.97,3
3694,-8.57,-4.15,2.65,-164.1,-48.3,148.08,3
3719,-8.38,-4.46,1.86,-85.56,-112.81,226.86,3
3744,-6.88,-5.52,-0.53,-23.85,-172.5,300.89,3
3769,-5.91,-7.46,-3.97,8.65,-182.69,366.8,3
3794,-5.27,-9.73,-6.79,11.63,-185.43,435.27,3
3819,-3.85,-13.87,-8.6,-2.27,-167.32,504.6,3
3844,0.69,-19.65,-9.29,-23.91,-94.52,581.92,3
3868,5.09,-19.65,-12.49,-62.02,-70.19,627.53,3
3894,8.77,-19.65,-16.67,-116.47,-56.65,639.17,3
3919,16.69,-19.65,-19.22,-183.3,-43.11,607.47,3
3943,18.6,-19.65,-19.02,-240.31,-167.81,522.59,3
3969,18.6,-19.65,-17.48,-249.1,-224.21,426.13,3
3993,18.6,-19.65,-18.25,-256.35,-86.28,342.23,3
4019,18.6,-15.87,-17.41,-269.58,-55.31,247.9,3
4043,18.6,-10.9,-16.5,-281.47,-29.03,133.88,3
4069,18.6,-9.25,-13.43,-298.79,9.39,36.44,3
4094,18.6,-8.81,-10.37,-308.24,20,-48.68,3
4118,15.83,-6.97,-7.48,-296.35,-0.86,-124.35,3
4144,12.92,-5.95,-4.57,-271.72,-54.52,-185.63,3
4168,10.07,-5.51,-0.52,-234.95,-60.06,-233.68,3
4193,8.29,-5.64,3.25,-177.88,-45.67,-268.62,3
4219,6.08,-4.76,5.19,-113.73,-23.17,-295.51,3
4243,4.11,-3.55,5.93,-37.27,36.7,-312.1,3
4268,3.02,-4.18,5.71,48.1,77.31,-314.29,3
4293,2.29,-4.73,4.08,121.45,66.15,-307.1,3
4318,1.56,-6.01,1.79,180.23,127.56,-304.66,3
4343,2.32,-8.44,-0.25,239.56,275.3,-295.94,3
4368,5.7,-10.25,-1.8,310.78,315.24,-270.63,3
4393,10.2,-14.34,-2.92,399.56,241.76,-259.17,3
4417,12.23,-18.38,-6.79,463.4,40.79,-287.52,3
4443,11.75,-19.65,-12.85,457.3,-155.67,-362.83,3
4467,5.89,-19.65,-19.22,343.83,-224.27,-442.95,3
4493,1.69,-19.65,-19.22,182.97,-135.73,-474.47,3
4518,-0.51,-19.65,-19.22,50.72,-119.94,-464.9,3
4543,-3.07,-19.65,-19.22,-62.02,-163.91,-423.01,3
4568,-5.33,-19.65,-19.22,-157.02,-125.25,-359.78,3
4593,-5.73,-19.65,-19.22,-238.42,-100,-292.83,3
4618,-5.78,-18.84,-19.22,-313.91,-97.93,-240.21,3
4643,-6.27,-16.83,-15,-361.11,-48.05,-195.02,3
4668,-5.98,-14.6,-11.4,-375.5,-7.08,-160.09,3
4693,-8.69,-11.94,-8.56,-367.26,-27.63,-117.16,3
4718,-10.67,-8.96,-6.28,-348.85,15.54,-56.31,3
4743,-11.57,-6.79,-4.1,-319.77,47.86,17.9,3
4767,-11.33,-5.54,-2.14,-279.16,18.35,99.79,3
4792,-9.54,-5.47,-1.05,-236.72,-29.52,182.84,3
4818,-8.03,-5.73,1.08,-187.88,-27.02,259.67,3
4842,-6.94,-7.22,1.28,-133.24,-41.53,333.75,3
4867,-5.15,-9.36,-0.67,-86.17,-76.04,409.12,3
4892,-3.28,-12.55,-3.67,-61.66,-103.97,480.88,3
4917,-1.65,-17.47,-5.87,-73.06,-85.31,540.94,3
4942,2.46,-19.65,-8.08,-131.11,32.19,586.25,3
4967,9.05,-19.65,-10.18,-200.01,75.42,616.61,3
4992,13.93,-19.65,-9.55,-229.83,-150.12,613.44,3
5017,18.6,-19.65,-13.87,-229.83,-220.61,565.27,3
5042,18.6,-19.65,-14.35,-264.83,-142.08,463.99,3
5067,18.6,-19.65,-11.28,-275.25,-67.99,360.4,3
5092,18.6,-17.98,-13.43,-262.2,-62.81,284.73,3
5117,18.6,-16.01,-15.36,-274.58,-67.26,213.94,3
5142,18.6,-13.17,-14.64,-303.36,-32.2,126.98,3
5167,18.6,-10.11,-11.93,-325.19,-51.59,19.06,3
5192,18.6,-8.78,-8.44,-333.06,-37.56,-80.21,3
5217,15.37,-8.1,-4.95,-324.77,7.62,-156.91,3
5242,12.68,-6.46,-1.16,-277.88,-33.78,-209.41,3
5267,10.39,-4.88,1.87,-215.86,-120.55,-247.28,3
5292,8.47,-4.36,4.1,-158.61,-63.05,-285.27,3
5316,5.99,-4.99,5.08,-90.19,-6.89,-321.67,3
5342,3.42,-5.43,5.7,-19.04,7.98,-334.11,3
5367,2.75,-6.65,5.46,44.93,12.13,-334.72,3
5391,1.96,-5.77,4.95,110.17,32.31,-336.24,3
5416,3.17,-8.48,3.17,170.23,54.45,-343.93,3
5441,1.95,-9.04,0.69,230.53,156.95,-344.05,3
5466,4.82,-11.23,-2.42,295.72,265.66,-333.13,3
5490,8.29,-14.61,-5.87,353.46,184.81,-330.51,3
5516,11.83,-17.21,-9.46,395.35,123.96,-355.45,3
5541,14.46,-19.65,-13.81,404.25,108.53,-410.2,3
5566,11.5,-19.65,-19.22,382.24,21.7,-459.35,3
5591,8.22,-19.65,-19.22,305.47,-137.93,-483.37,3
5616,-0.33,-19.65,-19.22,141.63,-235.86,-477.22,3
5641,-5.29,-19.65,-19.22,-41.66,-155.06,-410.27,3
5667,-6.57,-19.65,-19.22,-182.51,-111.53,-313.93,3
5691,-5.02,-19.65,-19.22,-286.05,-105.8,-228.01,3
5716,-1.82,-18.13,-18.29,-355.13,-32.56,-177.28,3
5741,-0.35,-16.68,-13.06,-387.51,-3.11,-171.37,3
5766,-1.55,-14.14,-8.82,-386.65,31.09,-171.3,3
5791,-3.95,-10.99,-6.58,-361.41,42.25,-157.28,3
5816,-7.62,-8.65,-5.28,-333.73,56.64,-120.27,3
5841,-8.77,-6.02,-4.21,-300.8,107.37,-63.38,3
5866,-9.01,-4.96,-2.92,-264.7,54.51,-1.06,3
5891,-8.94,-4.4,-2.02,-226.96,-3.72,68.51,3
5915,-8.55,-3.79,-1.35,-187.02,-10.98,147.78,3
5940,-7.14,-4.28,-1.42,-147.45,-35.19,230.89,3
5966,-4.84,-5.6,-2.17,-109.4,-89.39,305.64,3
5990,-2.4,-7.19,-3.94,-93.12,-104.33,363.45,3
6015,0.61,-8.24,-5.22,-96.41,-76.83,403.2,3
6040,2.96,-10.54,-6.01,-110.8,-111.77,440.03,3
6065,5.14,-14.29,-8.34,-127.27,-109.21,501.19,3
6089,10.12,-18.8,-9.9,-160.38,-56.47,555.03,3
6115,16.67,-19.65,-11.99,-182.82,-247.26,571.37,3
6140,18.6,-19.65,-15.46,-182.45,-304.33,554.72,3
6165,18.6,-19.65,-18.56,-245.38,-144.33,485.33,3
6190,18.6,-19.65,-13.32,-320.68,139.08,391.43,3
6215,18.6,-19.65,-11.19,-324.83,25.48,313.02,3
6240,18.6,-19.65,-13.16,-332.2,-104.45,252.9,3
6266,18.6,-16.94,-12.33,-364.22,-10.67,178.14,3
6290,18.6,-13.54,-8.8,-374.34,-48.3,71.19,3
6315,18.6,-10.96,-6.66,-369.4,-90.55,-21.06,3
6340,17.11,-10.73,-3.58,-362.45,-82.63,-96.79,3
6365,13.96,-8.69,-0.56,-330.19,-73.36,-157.71,3
6391,11.41,-5.79,1.89,-284.22,-86.89,-210.88,3
6415,9.44,-4.56,4.27,-227.69,-25.31,-261.36,3
6440,7.93,-4.85,4.99,-155.44,29.2,-308.8,3
6465,5.01,-4.22,5.42,-74.04,74.32,-339.17,3
6490,2.39,-3.79,4.87,10.11,107.86,-352.1,3
6514,2.19,-4.28,3.77,93.34,104.51,-353.19,3
6539,1.77,-6.38,1.72,164.5,99.14,-352.03,3
6565,0.99,-6.84,-0.29,218.89,171.82,-351.91,3
6589,2.22,-9.53,-2.25,263.52,238.59,-356.79,3
6614,6.12,-13.08,-4.31,306.39,319.87,-358.5,3
6639,10.3,-16.92,-6.6,368.58,363.77,-362.03,3
6664,11.96,-18.7,-9.79,433.95,298.41,-359.66,3
6690,13.73,-19.65,-13.46,466.87,-25.98,-379.35,3
6714,4.76,-19.65,-19.14,378.58,-406.22,-442.58,3
6740,-2.12,-19.65,-19.22,221.33,-206.04,-458.56,3
6764,-2.15,-19.65,-19.22,104.25,-24.88,-421.67,3
6789,-3.79,-19.65,-19.22,-1.9,-210.31,-367.46,3
6814,-4.13,-19.65,-19.22,-128.43,-169.21,-301.06,3
6839,-5.28,-18.69,-19.22,-236.41,-103.72,-235.57,3
6865,-4.35,-17.02,-19.22,-323,-98.84,-181.73,3
6889,-2.49,-16.29,-17.47,-380.13,-25.37,-154.05,3
6915,-3.08,-14.67,-13.2,-409.58,-10.07,-141.79,3
6939,-4.24,-11.84,-8.59,-408.3,-13.91,-118.99,3
6964,-6.24,-9,-5.49,-381.96,18.04,-87.34,3
6990,-8.75,-6.68,-3.44,-344.52,27.13,-48.56,3
7014,-8.21,-4.43,-1.35,-296.47,71.7,0.1,3
7039,-8.17,-3.22,0.85,-234.46,-6.47,57.72,3
7063,-7.92,-2.62,2.09,-160.38,-75.61,121.86,3
7089,-7.71,-1.74,2.44,-85.26,-102.02,191.74,3
7113,-7.32,-2.88,1.13,-17.09,-147.26,262.53,3
7138,-6.15,-4.46,-1.31,35.35,-175.19,327.71,3
7164,-5.65,-6.59,-3.67,64.68,-184.76,392.65,3
7188,-5.09,-7.88,-5.43,75.66,-185.55,459.24,3
7213,-2.53,-12.55,-7.03,79.44,-157.87,515.15,3
7238,0.98,-17.36,-8.55,77.55,-134.03,569.66,3
7263,2.71,-19.65,-12.74,64.93,-141.65,614.72,3
7288,5.5,-19.65,-16.71,32.91,-113.48,635.52,3
7313,9.88,-19.65,-19.22,-19.4,-151.34,624.3,3
7338,12.67,-19.65,-19.22,-65.74,-129.33,576.74,3
7363,15.66,-19.65,-19.22,-100.56,-22.5,492.29,3
7388,18.6,-17.36,-19.22,-143.73,24.39,382.29,3
7412,18.6,-14.36,-19.22,-214.22,88.29,253.33,3
7438,18.6,-11.87,-18.72,-273.85,175.18,144.85,3
7463,18.6,-10,-14.24,-297.2,96.15,64.36,3
7488,18.6,-7.89,-10.43,-297.02,-40.74,-7.83,3
7513,18.19,-6.37,-6.76,-287.81,-72.14,-89.96,3
7537,14.99,-5.41,-4.42,-274.34,-12.5,-178.99,3
7563,12.73,-6.27,-2.5,-248.12,29.81,-261.43,3
7588,9.99,-7.19,-0.32,-209.28,25.12,-323.56,3
7612,7.48,-7.21,2.24,-158.24,36.95,-363.07,3
7638,5.84,-7.33,3.52,-89.1,67.98,-388.01,3
7662,3.64,-6.85,3.96,-5.56,57.62,-397.28,3
7687,2.11,-7.85,4.09,69.01,17.25,-392.95,3
7711,0.8,-6.83,2.87,125.05,16.09,-385.63,3
7737,1.8,-10.32,0.91,175.23,111.28,-386.85,3
7762,1.68,-10.37,-1.14,227.85,201.46,-377.95,3
7787,4.95,-14.73,-1.99,281.69,206.46,-364.05,3
7812,6.19,-16.14,-4.89,335.47,184.75,-364.96,3
7836,7.15,-17.36,-7.29,378.58,46.03,-375.14,3
7862,6.63,-19.65,-11.18,369.74,-125,-417.4,3
7887,4.53,-19.65,-15.21,311.14,-166.22,-463.56,3
7912,-1.13,-19.65,-19.22,227.12,-184.58,-486.18,3
7937,-10.34,-19.65,-19.22,87.43,-259.33,-445.57,3
7962,-15.9,-19.65,-19.22,-81.96,-216.34,-327.83,3
7987,-14.65,-19.65,-19.22,-218.85,-147.38,-175.94,3
8013,-11.25,-19.65,-19.22,-327.08,-180.06,-57.46,3
8037,-6,-19.65,-16.62,-403.12,-74.39,4.18,3
8062,-3.59,-19.65,-12.41,-449.09,-18.24,7.96,3
8087,-4.72,-17.38,-8.81,-463.73,7.37,5.58,3
8112,-5.36,-13.27,-5.84,-445.92,51.76,11.25,3
8136,-7.93,-9.97,-4.06,-415.07,58.23,37.05,3
8161,-8.13,-8.11,-2.65,-383.85,101.95,75.46,3
8187,-6.73,-7,-1.69,-352.81,124.69,107.23,3
8211,-5.81,-5.98,0.18,-319.77,88.71,138.45,3
8236,-5.32,-5.46,1.79,-273.61,72.43,181.68,3
8261,-5.52,-5.02,2.29,-210.86,-11.53,237.59,3
8286,-5.8,-5.42,2.62,-137.27,-123.91,311.5,3
8311,-3.41,-7.48,0.45,-72.76,-176.34,385.64,3
8336,-1.63,-8.68,-3.27,-35.62,-184.82,441.37,3
8361,0,-11.32,-6.17,-27.7,-246.4,484.85,3
8385,0.2,-14.9,-9.14,-57.51,-204.82,524.72,3
8411,4.97,-18.48,-10.34,-113.97,-24.46,552.96,3
8435,10.79,-19.65,-11.26,-167.94,-32.69,558.44,3
8460,13.98,-19.65,-12.32,-175.86,-195.19,550.46,3
8486,17.16,-19.65,-15.1,-181.9,-185.86,516.01,3
8510,18.6,-19.65,-16.58,-205.86,-70,434.85,3
8536,18.6,-18.47,-19.22,-238.85,-12.08,320.34,3
8560,18.6,-15.84,-18.14,-277.88,23.41,202.96,3
8586,18.6,-12.67,-15.51,-302.94,2.62,104.85,3
8611,18.6,-10.08,-12.67,-315.38,-17.44,23.33,3
8636,18.6,-8.2,-9.73,-327.81,-5.43,-58.99,3
8661,14.92,-7.55,-6.4,-333.18,32.68,-136.49,3
8685,12.45,-6.78,-2.77,-311.9,42.01,-195.09,3
8711,10.44,-5.22,1.49,-250.19,-31.1,-233.87,3
8735,9.02,-4.32,4.13,-186.29,-106.28,-263.74,3
8760,7.23,-5.3,4.97,-126.84,-37.99,-299.54,3
8786,5.65,-3.39,5.69,-49.1,59.26,-322.34,3
8810,4.6,-2.8,6.42,35.17,7.92,-330.82,3
8835,3.36,-5.29,5.61,105.72,-9.82,-341.43,3
8859,2.19,-6.3,3.54,162.61,110.24,-341.97,3
8885,3.56,-7.59,1.99,236.33,209.02,-324.6,3
8910,3.16,-9,1.2,302.97,64.63,-305.69,3
8934,6.27,-14.07,-0.93,340.96,57.92,-321.79,3
8960,7.07,-16.9,-3.27,375.04,136.03,-345.27,3
8984,8.45,-19.38,-5.3,416.93,105.36,-364.66,3
9009,10.48,-19.65,-9.47,428.03,-94.64,-419.35,3
9034,10.33,-19.65,-14.58,385.72,-150.73,-497.09,3
9059,5.4,-19.65,-19.22,286.63,-240.49,-560.63,3
9085,-2.87,-19.65,-19.22,141.94,-264.94,-569.84,3
9109,-9.44,-19.65,-19.22,-14.1,-195,-500.26,3
9135,-13.84,-19.65,-19.22,-147.21,-205.55,-368.32,3
9159,-13.12,-19.65,-19.22,-263.85,-186.83,-211.91,3
9185,-8.36,-19.65,-19.22,-338.85,-101.83,-99.9,3
9210,-3.74,-19.65,-16.42,-387.81,-68.85,-49.9,3
9234,-1.44,-18.64,-13.27,-420.37,-29.52,-39.23,3
9260,-2.61,-15.29,-9.65,-434.09,17.86,-42.59,3
9284,-3.5,-12.31,-6.24,-425.74,35.97,-41.12,3
9309,-5.88,-9.73,-4.47,-405.07,62.19,-21.98,3
9335,-7.03,-8.4,-2.78,-381.47,98.53,12.35,3
9359,-6.33,-8.11,-0.08,-353,82.74,51.44,3
9384,-7.51,-6.45,1.47,-305.8,73.71,101.62,3
9409,-6.48,-5.57,2.34,-239.58,58.9,163.57,3
9434,-6.9,-4.66,2.29,-168.43,-68.85,244.54,3
9458,-5.75,-6.48,0.56,-97.88,-165.19,337.04,3
9483,-3.48,-9.27,-2.74,-53.98,-174.33,413.87,3
9509,-0.81,-10.78,-5.95,-52.76,-154.88,466.25,3
9533,1.63,-15.08,-9.43,-95.26,-139.09,501.31,3
9558,5.26,-17.32,-12.28,-188.18,-23.78,528.02,3
9583,11.29,-19.65,-9.92,-275.5,-7.44,534.66,3
9608,16.91,-19.65,-7.71,-296.05,-157.69,527.65,3
9634,18.6,-19.65,-10.72,-292.27,-133.6,495.33,3
9658,18.6,-19.65,-11.5,-326.53,60.48,415.52,3
9684,18.6,-19.65,-12.58,-363.36,54.51,307.35,3
9708,18.6,-19.65,-11.82,-396.53,-6.53,213.02,3
9733,18.6,-17.8,-7.46,-407.51,-83.42,135.83,3
9758,18.6,-15.09,-5,-387.87,-126.89,66.13,3
9783,18.6,-11.97,-4.91,-370.44,-96.34,-10.64,3
9809,18.6,-8.96,-2.92,-347.33,-41.53,-89.84,3
9833,16.84,-7.55,-1.44,-318.48,-70.61,-164.9,3
9858,13.98,-6.7,-0.32,-286.59,-21.89,-222.95,3
9883,11.15,-4.98,2.47,-225.68,-15.74,-267.28,3
9908,9.25,-3.85,4.21,-158.79,-64.52,-301.91,3
9933,7.85,-4.74,5.35,-93.91,-13.3,-338.74,3
9958,5.68,-5.41,5.47,-22.21,55.24,-364.47,3
9983,4.34,-5.28,5.07,48.89,43.65,-377.4,3
10007,2.83,-5.93,4.73,118.58,62.56,-382.52,3
10032,2.51,-8.17,3.1,178.1,106.15,-383.92,3
10057,3.4,-10.63,1.41,242.3,164.93,-381.18,3
10082,3.19,-10.83,-0.62,302.18,110.54,-375.57,3
10108,5.6,-15.8,-1.88,338.03,77.07,-397.46,3
10132,7.2,-19.65,-4.32,363.03,145.85,-423.8,3
10157,7.72,-19.65,-7.84,397.54,215.18,-434.29,3
10182,11.43,-19.65,-10.75,430.35,48.04,-446.67,3
10207,6.26,-19.65,-13.63,402.67,-268.36,-495.94,3
10233,-0.17,-19.65,-18.92,276.88,-305.37,-529.41,3
10257,-7.44,-19.65,-19.22,137.73,-141.1,-494.29,3
10283,-14.33,-19.65,-19.22,3.4,-229.27,-387.28,3
10307,-14.64,-19.65,-19.22,-132.27,-179.09,-238.74,3
10333,-11.31,-19.65,-19.22,-238.24,-127.02,-106.85,3
10357,-5.73,-19.65,-17.64,-312.69,-107.87,-40.27,3
10383,-2.65,-19.23,-14.33,-363.42,-47.5,-20.33,3
10408,-2.17,-16.51,-11.43,-388.06,4.14,-29.11,3
10433,-3.53,-13.05,-8.77,-387.14,1.95,-32.46,3
10458,-4.68,-10.13,-6.45,-375.5,12.5,-20.15,3
10482,-7.42,-7.99,-5.18,-356.11,54.63,1.38,3
10508,-7.62,-6.66,-3.92,-344.03,101.46,36.68,3
10533,-6.23,-6.5,-2,-322.57,102.92,67.47,3
10557,-7.82,-5.75,-0.31,-288.79,12.56,103.75,3
10583,-7.35,-4.37,1,-243.61,58.23,152.23,3
10607,-5.62,-4.21,1.12,-196.11,96.21,201.37,3
10632,-5.25,-4.32,1.05,-143.55,-47.81,254.79,3
10658,-5.22,-5.37,0.29,-82.33,-144.94,325.58,3
10682,-4.52,-7.44,-1.77,-35.56,-141.28,397.84,3
10707,-2.43,-10.3,-3.97,-12.15,-143.48,458.81,3
10732,-1,-13.47,-7.36,-10.81,-134.94,516.13,3
10757,3.69,-18.61,-11.1,-45.56,-55.98,569.11,3
10782,9.64,-19.65,-15.37,-117.57,-28.05,594.18,3
10807,18.6,-19.65,-18.99,-179.22,-92.81,564.66,3
10833,18.6,-19.65,-19.22,-223.55,-190.98,477.1,3
10857,18.6,-18.38,-18.85,-260.8,-113.66,369.24,3
10883,18.6,-16.31,-15.86,-269.34,-2.57,274.24,3
10907,18.6,-15.2,-15.42,-273.91,-55.37,208.87,3
10933,18.6,-12.65,-14.99,-293,-21.41,161.62,3
10958,18.6,-9.94,-11.92,-313.3,-88.3,94.12,3
10982,18.6,-8.48,-8.54,-321.47,-133.05,14.12,3
11008,18.6,-7.14,-4.98,-316.05,-94.58,-72.59,3
11032,14.48,-5.59,-2.43,-296.96,-39.15,-152.89,3
11058,11.86,-4.71,0.04,-250.74,3.53,-217.04,3
11082,10.53,-5.04,1.68,-197.21,-23.78,-272.46,3
11107,8.8,-5.67,2.92,-149.1,-5.61,-327.89,3
11133,6.19,-5.7,3.85,-85.62,84.45,-371.18,3
11157,4.47,-5.73,4.74,3.65,94.99,-387.77,3
11182,2.52,-7.12,4.24,84.25,43.35,-383.68,3
11206,2.41,-7.25,2.68,146.14,64.39,-381.12,3
11232,2.9,-9.38,1.08,203.1,140.73,-380.08,3
11257,3.01,-10.48,-0.35,262.97,134.75,-369.96,3
11282,4.61,-14.79,-1.29,313.46,93.47,-371.3,3
11307,6.99,-17.71,-4.13,357.79,131.34,-385.75,3
11331,8.72,-19.65,-6.59,402.97,99.02,-408.25,3
11357,9.42,-19.65,-12.91,409.19,-107.02,-458.44,3
11381,0.68,-19.65,-16.89,326.69,-312.87,-517.83,3
11407,-4.35,-19.65,-19.22,157.67,-244.64,-516.91,3
11432,-12.89,-19.65,-19.22,6.27,-139.88,-433.92,3
11457,-15.95,-19.65,-19.22,-128.91,-204.7,-298.25,3
11482,-12.59,-19.65,-19.22,-241.11,-171.34,-155.27,3
11507,-8,-19.65,-18.37,-331.23,-84.82,-72.53,3
11532,-4.19,-19.65,-14.74,-402.39,-55.8,-50.09,3
11558,-3.64,-19.65,-10.71,-444.22,8.78,-56.61,3
11582,-5.33,-16.09,-7.85,-442.69,38.78,-64.29,3
11608,-7.58,-12.35,-5.67,-417.57,31.76,-42.83,3
11632,-9.63,-9.57,-4.2,-384.83,62.92,9.06,3
11657,-7.74,-8.96,-2.64,-351.53,75.67,58.63,3
11682,-8.63,-7.43,-0.73,-312.33,17.98,106.31,3
11707,-8.54,-5.46,0.24,-257.2,17.25,162.53,3
11732,-8.5,-5.51,0.87,-201.41,-5.98,232.78,3
11756,-7.59,-5.68,1.18,-138.79,-90.8,312.53,3
11782,-5.56,-8.17,0.24,-76.96,-130.25,391.07,3
11806,-4.32,-10.6,-1.92,-29.59,-140,459.24,3
11832,-2.97,-13.27,-4.63,-4.4,-171.71,522.1,3
11857,-1.1,-18.46,-6.62,2.43,-152.56,577.22,3
11881,2.73,-19.65,-9.78,-29.83,-13.91,616.25,3
11907,9.02,-19.65,-13.64,-108.67,64.51,625.15,3
11931,16.87,-19.65,-16.95,-193.12,13.11,597.59,3
11957,18.6,-19.65,-19.22,-266.29,-34.46,520.58,3
11982,18.6,-19.65,-17.37,-313.79,-87.56,409.12,3
12007,18.6,-19.65,-14.61,-324.34,-79.58,307.59,3
12032,18.6,-18.4,-12.83,-327.81,-10.37,236.5,3
12057,18.6,-15.03,-10.56,-324.34,-36.65,181.56,3
12082,18.6,-9.79,-8.31,-312.94,-70,109,3
12106,18.6,-6.3,-4.89,-288.12,-106.16,16.8,3
12132,18.6,-4.96,-1.84,-252.57,-3.78,-76.55,3
12157,15.08,-3.19,-1.43,-216.47,12.56,-161.24,3
12182,12.4,-3.47,-0.73,-178.3,6.64,-225.02,3
12207,9.81,-4.1,-0.42,-139.95,27.74,-276.36,3
12231,8.62,-4.13,0.79,-89.16,48.65,-314.78,3
12257,6.8,-4.76,2.47,-23.79,6.4,-342.89,3
12282,4.59,-4.73,3,36.88,-13.78,-363.86,3
12306,3.46,-6.3,3,96.27,37.98,-375.75,3
12331,4.11,-8.36,1.96,159.5,101.09,-371.73,3
12356,3.24,-9.48,0.56,221.94,98.04,-366.36,3
12381,4.38,-11.52,-0.72,276.27,88.65,-369.96,3
12405,6.28,-16.21,-1.77,319.92,141.34,-376.91,3
12431,8.94,-18.59,-3.16,373.52,177.55,-378.25,3
12456,11.73,-19.65,-5.44,428.95,94.14,-393.8,3
12481,11.61,-19.65,-8.73,454.43,-112.32,-439.66,3
12506,8.06,-19.65,-14.05,393.95,-290.79,-514.9,3
12531,0.52,-19.65,-19.22,259.5,-278.66,-555.57,3
12556,-5.83,-19.65,-19.22,91.69,-233.54,-519.05,3
12582,-13.04,-19.65,-19.22,-74.22,-216.77,-393.31,3
12606,-12.98,-19.65,-19.22,-207.33,-187.08,-240.51,3
12632,-9.59,-19.65,-18.64,-310.01,-146.1,-120.7,3
12656,-4.6,-19.65,-13.95,-371.59,-56.77,-67.77,3
12682,-2.66,-18.64,-10.38,-399.03,-7.02,-66.55,3
12707,-3.92,-15.21,-7.88,-393.91,24.87,-72.71,3
12731,-5.98,-11.3,-6.69,-374.03,50.91,-61.85,3
12757,-7.87,-8.62,-5.59,-349.34,57.25,-28.44,3
12781,-8.81,-7.1,-4.15,-327.2,53.84,24.67,3
12806,-8.6,-5.91,-2.69,-293.24,51.7,86.92,3
12831,-8.06,-5.34,-1.53,-251.84,22.98,148.57,3
12856,-7.29,-5.23,-1.29,-213.85,-6.22,215.09,3
12881,-6.17,-5.96,-1.06,-174.95,-40.31,286.25,3
12906,-5.16,-7.69,-1.82,-143.73,-79.27,356.8,3
12931,-4.44,-10.11,-3.22,-132.02,-74.21,424.6,3
12955,-1.48,-13.75,-4.08,-139.4,-44.82,481.74,3
12981,0.74,-17,-5.45,-157.63,-81.04,528.87,3
13006,2.84,-19.65,-6.8,-187.14,-73.54,581.74,3
13031,8.35,-19.65,-8.1,-238.42,33.53,606.68,3
13056,13.94,-19.65,-9.21,-283.36,22.86,579.42,3
13080,18.6,-19.65,-10.38,-313,-51.65,511.74,3
13106,18.6,-19.65,-11.6,-343.42,9.14,429.79,3
13130,18.6,-19.65,-10.95,-361.84,55.97,330.95,3
13156,18.6,-19.65,-11.35,-356.35,-106.65,229.06,3
13181,18.6,-18.52,-12.08,-357.81,-124.82,160.28,3
13206,18.6,-15.8,-10.03,-363.73,-66.16,95.34,3
13231,18.6,-12.34,-7.56,-353.36,-158.97,28.69,3
13256,18.6,-9.89,-5.28,-340.62,-175.31,-33.56,3
13281,16.77,-8.2,-2.03,-316.41,-92.5,-106.79,3
13307,13.39,-5.66,0.91,-266.17,-63.85,-171.06,3
13331,11.31,-4.11,2.33,-205.99,-52.08,-223.44,3
13356,9.76,-5.35,1.76,-144.71,-3.48,-275.63,3
13381,8.23,-4.34,1.52,-85.01,39.2,-323.01,3
13406,7.76,-5.8,1.99,-15.13,38.35,-361.67,3
13431,6,-6.03,1.3,49.38,-9.09,-386.3,3
13456,5.19,-8.16,-0.14,92.3,13.9,-414.53,3
13481,5.13,-11.97,-1.96,128.64,58.96,-443.86,3
13505,4.41,-12.75,-3.46,166.94,54.02,-454.96,3
13531,4.38,-14.53,-3.58,191.33,-26.59,-473.86,3
13555,3.5,-18.47,-2.88,189.38,-55.31,-505.63,3
13580,3.87,-19.65,-3.1,200.47,51.89,-526.97,3
13606,4.36,-19.65,-4.48,221.75,93.65,-538.74,3
13630,5.05,-19.65,-7.48,259.01,129.02,-532.83,3
13656,4.12,-19.65,-9.37,273.58,-57.5,-529.53,3
13680,0.65,-19.65,-13.17,237.67,-230.67,-526.67,3
13706,-7.28,-19.65,-16.95,142.36,-242.26,-489.35,3
13731,-13.36,-19.65,-19.22,34.68,-148.84,-373.13,3
13756,-10.37,-19.65,-19.22,-48.12,-124.7,-230.27,3
13781,-8.87,-19.65,-19.22,-149.16,-168.6,-110.88,3
13806,-5.3,-19.65,-19.22,-253.49,-118.84,-40.76,3
13831,-1.04,-19.65,-17.36,-345.86,1.89,-30.57,3
13855,-0.12,-19.65,-14.67,-404.03,22.92,-57.16,3
13881,-1.72,-17.32,-11.18,-427.81,38.59,-73.2,3
13906,-2.68,-14.68,-8.12,-429.46,43.9,-72.04,3
13931,-3.89,-12.31,-6.67,-413.97,87.19,-66.43,3
13956,-6.1,-10.43,-5.01,-397.08,77.86,-47.16,3
13980,-7.11,-8.31,-3.16,-370.5,86.52,-12.47,3
14006,-7.75,-6.79,-1.92,-335.86,97.92,31.99,3
14031,-7.25,-5.27,-1.38,-294.22,79.99,82.29,3
14055,-5.79,-4.9,-1.3,-250.31,-11.22,150.83,3
14081,-4.74,-4.66,-1.14,-204.16,-104.09,236.07,3
14105,-4.16,-6.68,-1.91,-157.88,-168.6,315.34,3
14130,-2.57,-8.6,-3.82,-124.1,-227.62,388.02,3
14155,-2.08,-11.69,-5.53,-110.93,-237.32,450.88,3
14180,-1.1,-15.86,-7.1,-130.32,-173.48,514.3,3
14206,3.93,-19.65,-7.13,-181.17,-34.64,570.46,3
14230,9.88,-19.65,-8.06,-251.05,52.62,602.16,3
14255,18.38,-19.65,-8.98,-287.88,-77.93,585.7,3
14280,18.6,-19.65,-13.24,-305.38,-221.4,515.27,3
14305,18.6,-19.65,-15.49,-338.06,-174.64,408.81,3
14331,18.6,-19.65,-12.59,-347.51,-44.88,300.21,3
14356,18.6,-18.83,-12.88,-317.69,-156.41,225.76,3
14381,18.6,-16.79,-14.05,-322.27,-145.19,184,3
14406,18.6,-15.17,-12.61,-334.95,-123.6,124.91,3
14431,18.6,-11.12,-10.77,-340.37,-151.83,43.51,3
14457,18.6,-8.67,-7.85,-343.36,-127.44,-43.38,3
14481,15.81,-7.46,-4.53,-336.59,-80.37,-125.09,3
14506,12.3,-7.08,-1.34,-308.36,-18.85,-191.91,3
14531,8.85,-5.87,0.91,-258.91,13.96,-246.06,3
14556,7.85,-3.85,2.95,-185.25,92.8,-284.35,3
14581,6.22,-4.29,4.69,-99.4,67.43,-318.07,3
14606,4.69,-4.62,4.99,-17.45,-24.33,-343.99,3
14631,2.62,-4.07,3.91,52.67,31.95,-350.88,3
14655,4.07,-7.31,3.44,123.64,33.11,-346.61,3
14681,-1.74,-5.13,1.45,175.78,-32.56,-356.85,3
14705,1.36,-7.73,-0.62,228.03,133.17,-367.46,3
14731,4.1,-11.89,-2.21,283.95,200.79,-376.91,3
14756,5.75,-16.24,-3.8,332.61,104.38,-400.08,3
14780,7.48,-19.65,-5.15,368.64,96.7,-435.94,3
14806,10.1,-19.65,-8.49,393.83,63.71,-478.8,3
14830,7.97,-19.65,-13.79,378.03,-117.56,-529.53,3
14856,-0.87,-19.65,-18.37,267.79,-314.51,-573.62,3
14880,-5.3,-19.65,-19.22,108.4,-228.9,-542.22,3
14906,-10.28,-19.65,-19.22,-17.27,-220.37,-451.06,3
14931,-14.35,-19.65,-19.22,-134.22,-283.96,-316.36,3
14956,-13.79,-19.65,-18.29,-224.83,-155.19,-167.22,3
14981,-8.37,-19.65,-15.5,-294.34,-105.98,-74.78,3
15006,-5.36,-19.65,-13.02,-352.81,-62.02,-39.42,3
15031,-3.6,-18.88,-10.58,-398.79,47.37,-47.28,3
15057,-6.09,-15.81,-9.3,-416.72,112.92,-67.65,3
15081,-9.22,-13.11,-8.54,-414.34,87.31,-52.16,3
15106,-9.52,-11.33,-6.77,-416.35,94.93,2.53,3
15131,-10.6,-10.14,-5.26,-417.14,161.21,54.18,3
15156,-7.88,-9.65,-2.27,-403.3,150.36,91.13,3
15182,-6.26,-8.79,0.73,-369.09,76.46,132.72,3
15206,-6.45,-7.97,2.6,-317.08,71.4,184.61,3
15231,-5.77,-7.07,3.08,-262.88,18.41,241.37,3
15256,-4.76,-8.51,2.56,-207.57,-76.83,309.97,3
15281,-4.3,-10,0.51,-165.13,-96.47,381.37,3
15305,-1.36,-14.63,-1.57,-155.44,-72.63,449.73,3
15331,-0.51,-17.13,-5.64,-181.17,-60.31,510.21,3
15356,5.78,-19.05,-9.79,-237.33,-19.03,546.43,3
15381,12.05,-19.65,-10.17,-298.12,-153.17,540.09,3
15406,18.54,-19.65,-10.89,-312.81,-277.26,521.86,3
15431,18.6,-19.65,-12.44,-291.96,-274.09,476.31,3
15456,18.6,-19.65,-15.1,-283.67,-174.45,408.38,3
15482,18.6,-19.65,-16.43,-295.86,17.13,331.5,3
15506,18.6,-19.65,-14.61,-301.05,10.67,260.46,3
15532,18.6,-18.43,-14.33,-313.85,-65.49,201.86,3
15556,18.6,-16.01,-11.26,-335.44,11.89,127.96,3
15582,18.6,-9.92,-7.14,-326.23,50.85,29.3,3
15607,18.6,-8.6,-4.26,-296.66,-35,-84.17,3
15631,18.6,-9.32,-1.94,-258.79,-29.27,-185.21,3
15657,13.5,-7.93,-0.63,-207.94,5.12,-260.27,3
15681,11.09,-7.69,0.37,-148.61,-27.32,-308.07,3
15707,8.36,-6.69,0.48,-102.39,-96.16,-342.83,3
15731,5.92,-6.55,1.18,-68.24,-47.26,-375.27,3
15756,5.15,-6.75,1.83,-22.82,1.15,-400.69,3
15781,4.54,-8.83,2.62,29.87,11.34,-423.13,3
15806,2.85,-10.12,2.24,86.45,43.23,-436.49,3
15831,1.57,-9.35,0.27,143.64,124.69,-435.45,3
15855,5.56,-13.05,-0.35,206.69,177.07,-436.55,3
15881,6.58,-16.57,-1.9,275.35,139.81,-445.81,3
15906,5.79,-19.23,-4.3,309.74,47.98,-453.38,3
15931,4.88,-19.65,-5.36,320.78,32.5,-456.91,3
15956,8.8,-19.65,-6.19,348.83,116.64,-461.91,3
15981,9.53,-19.65,-9.82,361.81,-33.85,-484.35,3
16006,5.7,-19.65,-13.16,327.79,-228.54,-519.17,3
16030,-2.19,-19.65,-18,227.49,-250.73,-520.63,3
16056,-9.9,-19.65,-19.22,108.83,-190.92,-437.46,3
16081,-14.43,-19.65,-19.22,-12.09,-239.09,-294.35,3
16106,-10.85,-19.65,-19.22,-119.1,-178.72,-145.51,3
16132,-8.36,-18.93,-19.22,-228.79,-124.21,-41,3
16156,-3.62,-17.9,-16.05,-306.78,-50,5.89,3
16181,-1.04,-16.53,-13.44,-357.94,35.85,6.01,3
16207,-1.11,-14.88,-10.4,-386.47,74.08,-18.2,3
16231,-3.19,-13.55,-8.07,-397.94,101.88,-33.5,3
16256,-5.28,-11.92,-6.55,-394.89,142.56,-32.71,3
16281,-6.92,-10.2,-5.9,-380.13,148.47,-6.55,3
16306,-6.91,-8.64,-5.09,-359.58,154.32,30.4,3
16331,-6.44,-7.67,-4.88,-339.7,120.85,70.03,3
16356,-6.23,-6.17,-4.37,-327.45,106.7,116.01,3
16381,-5.82,-6.32,-3.51,-316.96,118.17,169.97,3
16406,-5.26,-7.21,-2.36,-317.45,84.63,227.29,3
16431,-2.68,-9.77,-0.88,-311.05,31.46,295.15,3
16455,-2.01,-12.39,-0.59,-303,-17.5,360.88,3
16481,0.6,-14.43,-1.17,-291.53,-115.67,420.76,3
16506,3.6,-16.69,-2.96,-271.23,-192.87,473.87,3
16531,7.2,-19.65,-6.75,-276.72,-225.73,511.86,3
16556,10.15,-19.65,-10.95,-340.98,-151.34,516.8,3
16581,18.6,-19.65,-10.72,-412.81,-134.27,488.57,3
16606,18.6,-19.65,-8.4,-413.06,-296.16,447.35,3
16632,18.6,-19.65,-9.81,-349.58,-372.38,404.79,3
16656,18.6,-19.65,-12.43,-299.83,-156.65,323.69,3
16682,18.6,-19.65,-12.99,-276.05,-37.81,237.04,3
16706,18.6,-15.09,-14,-264.34,-46.77,165.28,3
16732,18.6,-11.13,-13.62,-275.25,-71.04,80.16,3
16756,18.6,-9.76,-9.91,-294.77,19.57,-21.86,3
16782,18.6,-8.99,-6.53,-287.08,38.71,-132.4,3
16807,15.23,-9.03,-3.54,-265.68,-44.76,-222.58,3
16831,12.74,-9.27,-1.65,-235.86,10.73,-286.12,3
16857,11.2,-9.43,-0.15,-170.8,0.79,-338.44,3
16881,6.48,-8.33,1.14,-115.44,-155.49,-361.85,3
16906,2.53,-5.7,1.74,-88.91,-145.61,-371.79,3
16932,3.99,-6.1,3.51,-54.4,-11.77,-388.62,3
16956,2.5,-8.65,3.7,3.16,34.02,-418.56,3
16981,0.14,-6.74,3.17,73.52,125.54,-427.89,3
17006,1.74,-8.31,2.39,161.51,266.27,-417.64,3
17031,6.01,-14.12,-1.16,273.46,300.18,-391.36,3
17056,7.46,-15.41,-4.26,365.04,117.43,-375.39,3
17081,10.35,-19.65,-6.36,395.72,9.51,-415.81,3
17106,9.49,-19.65,-9.03,406.51,61.58,-462.28,3
17131,10.28,-19.65,-15.71,391.26,77.92,-491.79,3
17156,7.36,-19.65,-19.22,330.41,-152.99,-520.26,3
17181,-2.81,-19.65,-19.22,169.25,-322.81,-526.24,3
17206,-8.12,-19.65,-19.22,-27.02,-169.82,-430.2,3
17232,-11.66,-19.65,-19.22,-168.61,-128.78,-292.58,3
17256,-9.12,-19.65,-19.22,-277.2,-154.27,-164.48,3
17282,-4.64,-19.65,-14.76,-346.78,-28.42,-96.37,3
17306,-1.75,-18.68,-10.95,-380.56,44.87,-85.88,3
17332,-1.79,-15.79,-9,-382.94,65.36,-92.53,3
17357,-2.81,-12.51,-7.64,-368.91,71.82,-86.43,3
17381,-5.47,-9.46,-6.65,-352.87,59.81,-62.16,3
17407,-6.9,-7.56,-5.76,-346.35,74.69,-19.05,3
17431,-8.8,-6.57,-5.47,-342.57,97.49,41.01,3
17456,-8.43,-6.19,-4.19,-346.11,120.36,101.8,3
17481,-6.55,-7.19,-2.79,-342.14,114.45,155.09,3
17506,-6.27,-8,-1.26,-337.14,54.2,215.4,3
17531,-5.19,-9.68,1.11,-317.63,61.76,288.08,3
17556,-3.52,-11.35,1.9,-286.29,-41.47,362.1,3
17581,-1.59,-15.05,0.4,-239.22,-205.25,453.81,3
17606,0.65,-19.65,-3.59,-206.84,-220.06,533.99,3
17631,5.81,-19.65,-8.99,-239.52,-124.21,578.38,3
17657,16,-19.65,-13.4,-326.29,-76.89,554.79,3
17681,18.6,-19.65,-13.13,-424.15,-102.99,489.24,3
17707,18.6,-19.65,-9.41,-457.45,-92.2,421.07,3
17731,18.6,-19.65,-8.9,-436.11,-162.32,363.93,3
17757,18.6,-19.65,-10.21,-401.65,-138.23,316.01,3
17781,18.6,-19.65,-9.49,-380.68,-88.72,237.47,3
17807,18.6,-16.96,-7.33,-361.17,-124.45,137.78,3
17832,18.6,-12.35,-3.81,-325.92,-13.48,30.71,3
17856,18.6,-8.78,-2.14,-278.85,-32.5,-79.84,3
17882,18.6,-6.79,-1.52,-226.29,-29.88,-172.83,3
17906,13.6,-6.32,-1.55,-178.67,-23.36,-250.27,3
17932,9.15,-6.54,-1.63,-141.78,-34.7,-298.99,3
17957,7.27,-6.01,-1.05,-108.79,-24.88,-328.8,3
17981,6.19,-6.9,0.15,-70.99,-8.3,-360.45,3
18007,5.79,-8.73,1.16,-21.11,-17.44,-393.01,3
18031,2.91,-8.46,0.95,26.27,-15.8,-412.03,3
18056,2.9,-8.82,0.84,80.11,60.54,-411.55,3
18080,3.37,-11.67,0.13,145.9,76.89,-411.06,3
18106,1.33,-10.01,-1.93,195.29,46.89,-406.12,3
18131,2.5,-12.69,-2.83,240.59,150.6,-400.51,3
18156,5.37,-15,-3.28,305.05,190.79,-380.94,3
18181,8.18,-19.13,-5.16,366.02,84.63,-376.79,3
18205,8.22,-19.65,-9.06,389.98,12.25,-402.1,3
18231,10.84,-19.65,-14.09,375.96,36.28,-435.63,3
18256,7,-19.65,-18.82,311.26,-230.67,-476.24,3
18281,0.11,-19.65,-19.22,139.62,-260.61,-494.53,3
18306,1.64,-19.65,-19.22,-7.15,42.31,-452.89,3
18331,-3.62,-19.65,-19.22,-124.22,-162.38,-393.01,3
18356,-5.01,-19.65,-19.22,-251.11,-157.14,-301.3,3
18382,-4.05,-19.65,-17.8,-334.28,11.52,-241.37,3
18406,-3.45,-19.11,-12.42,-373.79,-2.14,-218.19,3
18432,-3.83,-16.24,-8.96,-375.25,49.75,-196.37,3
18456,-5.1,-12.55,-7.54,-355.19,83.35,-168.8,3
18481,-4.75,-10.43,-6.21,-334.64,30.48,-118.07,3
18506,-9.32,-6.65,-5.56,-321.29,-18.42,-49.48,3
18531,-9.75,-5.77,-5.03,-308.97,51.89,30.34,3
18556,-8.63,-5.53,-4.93,-300.44,63.04,109.91,3
18581,-7.46,-5.32,-3.81,-284.03,-44.7,193.87,3
18606,-5.08,-6.28,-2.55,-253.97,-124.64,283.81,3
18631,-3.12,-8.55,-2.53,-213.3,-202.08,375.52,3
18656,-0.31,-11.71,-2.98,-158.49,-282.56,461.07,3
18681,3.13,-14.2,-5.11,-96.47,-379.15,538.75,3
18706,4.61,-18.67,-8.5,-44.16,-422.99,590.94,3
18731,5.71,-19.65,-12.19,-38.3,-324.45,620.76,3
18756,8.3,-19.65,-15.07,-90.68,-136.59,632.28,3
18781,14.22,-19.65,-15.48,-154.16,-14.27,609.36,3
18807,17.06,-19.65,-16.09,-194.77,-67.38,541.01,3
18831,17.32,-19.65,-17.29,-185.93,-131.71,470.82,3
18857,15.25,-19.65,-18.19,-181.78,-101.41,404.3,3
18881,17.57,-17.87,-18.07,-202.51,-27.14,339.12,3
18907,18.6,-14.42,-17.01,-227.88,2.25,247.23,3
18931,18.6,-9.01,-14.97,-246.6,-23.42,141.31,3
18957,18.6,-8.02,-11.56,-259.89,-89.82,36.01,3
18982,18.29,-6.23,-8.65,-265.74,-38.42,-60.15,3
19006,16.28,-5.63,-5.58,-254.22,-0.49,-160.94,3
19032,12.82,-5.86,-3.3,-236.11,-71.95,-250.94,3
19056,10.41,-8.94,-1.05,-219.4,-20.49,-329.9,3
19081,6.89,-9.8,-0.74,-183.3,59.75,-386.42,3
19107,6.06,-9.54,0.24,-131.72,64.39,-414.66,3
19131,5.69,-10.64,0.67,-77.57,115.12,-444.66,3
19157,5.52,-10.97,-0.55,-12.27,178.04,-476.24,3
19181,4.68,-11.11,-1.85,57.55,197.37,-483.56,3
19206,4.88,-12.95,-2.86,119.01,146.88,-475.14,3
19231,5.49,-13.51,-3.88,161.57,116.7,-475.2,3
19256,7.27,-17.53,-4.56,201.88,140.12,-489.84,3
19282,6.03,-15.56,-5.88,239.68,130.42,-486.55,3
19306,8.74,-18.3,-8.72,274.86,108.78,-474.72,3
19332,9.09,-19.65,-9.74,293.16,1.15,-494.47,3
19356,7.55,-19.65,-13.09,299.19,-2.69,-502.58,3
19381,0.05,-19.65,-17.72,283.95,-175.19,-492.58,3
19407,-6.21,-19.65,-19.22,184.07,-283.05,-440.33,3
19431,-10.91,-19.65,-19.22,55.11,-154.7,-316.49,3
19457,-10.74,-19.65,-19.22,-59.1,-113.6,-183.13,3
19481,-6.57,-19.65,-19.22,-165.93,-111.22,-88.13,3
19507,-1.94,-19.65,-19.22,-279.03,-19.82,-50.64,3
19531,-0.66,-19.65,-18.07,-372.14,5.54,-60.27,3
19557,-2.49,-19.65,-14.69,-442.87,82.31,-68.93,3
19582,-3.56,-19.06,-11.15,-472.02,121.88,-63.44,3
19606,-4.97,-17.14,-9,-481.17,102.13,-47.89,3
19632,-4.58,-15.34,-6.36,-481.78,149.87,-33.99,3
19656,-6.95,-12.91,-3.84,-472.63,117.07,-7.1,3
19682,-7.85,-11.33,-2.2,-454.58,214.81,27.72,3
19707,-7.71,-9.95,-1.28,-434.7,202.13,70.16,3
19731,-7.71,-9.04,0.44,-399.95,121.52,140.09,3
19757,-5.47,-9.59,2.08,-347.81,-64.58,233.69,3
19781,-3.43,-12.53,1.91,-276.53,-234.76,333.57,3
19806,-1.9,-15.3,-2.08,-228.36,-313.66,426.37,3
19832,0.73,-16.51,-6.47,-243.67,-209.21,485.15,3
19856,10.09,-19.65,-7.53,-303.79,-202.26,513.87,3
19882,15.18,-19.65,-8.38,-355.62,-190.55,494.24,3
19906,16.79,-19.65,-6.65,-384.03,-203.78,468.44,3
19932,15.39,-19.65,-6.08,-376.9,-242.62,457.1,3
19956,15.81,-19.65,-7.78,-328.91,-156.83,450.76,3
19982,18.6,-19.65,-12.95,-312.81,-127.99,411.19,3
20007,18.6,-19.65,-14.61,-328.97,-132.32,353.26,3
20032,18.6,-19.65,-11.62,-355.5,-19.94,268.93,3
20057,18.6,-16.84,-8.94,-348.3,-74.21,163.2,3
20082,18.6,-11.16,-7.17,-320.5,-49.21,41.62,3
20107,18.6,-9.23,-5.44,-298.3,-68.97,-88.32,3
20133,18.6,-8.51,-3.2,-261.96,44.81,-187.83,3
20157,15.14,-8.13,-2.35,-220.13,-32.14,-275.33,3
20182,12.3,-7.39,-1.09,-181.35,6.03,-334.84,3
20207,10.43,-9.88,0.08,-134.04,-24.33,-390.33,3
20232,7.18,-10.79,1.21,-100.87,-82.5,-430.57,3
20258,6.21,-12.64,2.73,-66.6,-33.85,-464.35,3
20282,5.16,-13.37,3.24,-19.28,29.08,-495.33,3
20307,3.75,-14,2.78,49.8,88.23,-505.39,3
20332,3.3,-14.32,2.44,122.49,97.37,-492.58,3
20357,3.39,-14.14,0.84,193.4,181.88,-479.41,3
20381,9.96,-19.4,-3.27,285.11,243.16,-465.57,3
20407,10.05,-19.65,-7.33,351.33,81.28,-468.13,3
20432,8.63,-19.65,-6.01,360.53,-79.76,-485.14,3
20457,8.19,-19.65,-8.5,357.79,72.62,-502.52,3
20482,9.07,-19.65,-11.71,384.56,102.56,-486,3
20507,7.34,-19.65,-15.61,375.96,-175.98,-490.02,3
20532,-1.7,-19.65,-19.22,277.48,-342.2,-487.03,3
20558,-14.32,-19.65,-19.22,97.24,-338.17,-380.27,3
20582,-16.17,-19.65,-19.22,-78.61,-202.75,-195.69,3
20608,-10.28,-19.65,-19.22,-214.52,-145.19,-42.89,3
20632,-2.52,-19.65,-18.08,-327.45,-84.58,22.66,3
20658,1.85,-19.65,-14.87,-413.42,7.25,16.74,3
20682,1.23,-19.65,-11.68,-461.35,89.81,-29.6,3
20707,-2.74,-19.21,-9.8,-492.32,151.82,-59.17,3
20733,-5.86,-16.74,-7.59,-495.68,148.9,-54.84,3
20757,-8.06,-15.16,-5.1,-490.56,133.71,-22.65,3
20783,-8.4,-13.45,-1.86,-474.58,197.8,14.79,3
20807,-8.84,-10.87,0.31,-439.76,224.63,50.64,3
20832,-9.09,-9.35,0.96,-394.03,197.86,96.31,3
20858,-7.76,-8.88,2.23,-344.83,139.75,173.45,3
20882,-5.73,-9.97,1.27,-294.64,-33.97,265.22,3
20907,-4.65,-11.99,-1.41,-263.73,-170.49,348.26,3
20932,-1.54,-15.62,-4.07,-279.28,-111.04,405.95,3
20957,4.45,-17.76,-4.74,-342.57,19.39,419.6,3
20983,7.83,-19.65,-4.99,-421.41,46.58,399.91,3
21007,10.3,-19.65,-3.73,-474.64,-81.83,380.27,3
21033,9.3,-19.65,-2.64,-491.71,-193.36,402.77,3
21057,13.46,-19.65,-3.78,-478.24,-164.64,430.52,3
21083,17.75,-19.65,-7.64,-471.96,-90.86,409.54,3
21107,18.6,-19.65,-9.33,-474.7,-2.14,333.75,3
21132,18.6,-19.65,-5.89,-453.48,-125.92,240.83,3
21158,18.6,-19.65,-5.05,-420.98,-193.72,163.39,3
21182,18.6,-15.98,-1.71,-384.28,-107.99,63.94,3
21208,18.6,-11.66,-0.83,-340.8,100.06,-74.54,3
21232,18.6,-10.51,-0.52,-284.52,-173.97,-197.95,3
21258,17.26,-9.96,-0.99,-241.6,-13.36,-261.18,3
21283,13.7,-9.28,-1.34,-180.38,78.9,-337.83,3
21307,12.45,-10.32,-0.38,-128.97,-92.87,-393.86,3
21333,9.56,-10.26,-1.33,-85.13,-11.47,-433.74,3
21357,7.66,-11.1,-1.59,-31.96,26.52,-461.42,3
21383,7.14,-12.5,-0.88,11.51,-39.46,-485.08,3
21407,7.49,-15.9,-0.81,53.77,-19.82,-506.48,3
21432,4.91,-15.25,-0.8,88.77,-47.26,-522.7,3
21458,4.75,-17.6,1.14,120.66,-9.15,-534.29,3
21482,1.67,-18.07,0.24,159.8,96.95,-527.58,3
21507,6.32,-19.65,-4.25,233.4,225.97,-506.48,3
21532,6.23,-19.65,-3.55,305.35,51.09,-482.7,3
21557,3.46,-19.65,-4.94,316.02,-128.05,-482.16,3
21583,6.34,-19.65,-7.62,319.86,105.06,-470.2,3
21607,7.33,-19.65,-11.58,343.09,47.37,-458.07,3
21633,6.45,-19.65,-13.88,317.67,-169.09,-467.7,3
21657,0.62,-19.65,-19.22,238.09,-182.87,-460.88,3
21683,-7.99,-19.65,-19.22,106.08,-287.38,-395.39,3
21707,-13.06,-19.65,-19.22,-69.52,-275,-247.52,3
21733,-8.06,-19.65,-19.22,-200.68,-81.41,-111.37,3
21758,-2.15,-19.65,-18.97,-315.68,-47.56,-50.82,3
21782,1.78,-19.65,-16.07,-410.31,51.21,-56.61,3
21808,1.04,-19.65,-13.66,-466.23,156.09,-114.48,3
21832,-0.95,-19.65,-11.23,-488.06,188.59,-149.29,3
21858,-4.57,-18.68,-9.24,-492.81,162.37,-147.95,3
21883,-5.38,-16.7,-7.22,-485.43,212.31,-130.02,3
21908,-6.32,-13.12,-5.33,-466.35,285.42,-105.82,3
21933,-5.16,-10.99,-3.86,-429.22,228.41,-79.42,3
21958,-5.21,-8.08,-3.3,-389.15,142.49,-28.68,3
21983,-4.26,-7.67,-2.76,-353.91,45.24,33.39,3
22008,-3.58,-7.87,-2.59,-328.24,-97.5,106.25,3
22033,-2.7,-9.11,-2.74,-317.75,-170.86,186.74,3
22058,-0.96,-12.01,-2.9,-322.75,-200.31,261.68,3
22082,-0.88,-14.68,-4.14,-343.48,-206.04,328.02,3
22108,0.8,-19.09,-4.35,-381.96,-165.98,385.09,3
22132,4.95,-19.65,-3.39,-429.03,-128.42,427.23,3
22158,9.97,-19.65,-3.37,-464.82,-119.27,443.2,3
22183,15.27,-19.65,-3.42,-493.61,-140.25,424.3,3
22208,18.6,-19.65,-3.42,-493,-148.17,375.34,3
22233,18.6,-19.65,-4.29,-452.45,-137.81,318.14,3
22258,18.6,-19.65,-6.15,-419.64,-95.31,246.92,3
22283,18.6,-19.65,-6.49,-392.14,-156.1,154.73,3
22309,18.6,-19.54,-5.93,-360.25,-240.18,75.89,3
22333,18.6,-17.17,-4.89,-334.83,-99.82,-6.43,3
22358,18.6,-12.43,-4.03,-303.24,-62.99,-107.16,3
22383,18.6,-10.03,-3.73,-263.24,-46.83,-204.78,3
22408,16.34,-10.52,-3.49,-228.67,-3.6,-287.22,3
22434,12.75,-11.41,-2.57,-187.39,-25.61,-348.01,3
22458,8.75,-10.33,-1.67,-142.75,-57.02,-379.66,3
22484,7.43,-9.2,-0.8,-95.99,-41.53,-396.79,3
22508,6.44,-10.1,-0.72,-51.35,-63.11,-419.35,3
22533,4.13,-10.29,-0.26,-14.77,-65.06,-437.34,3
22558,3.12,-10.35,0.71,23.4,-41.71,-438.68,3
22583,-1.47,-8.99,1.34,62.61,-11.89,-443.62,3
22608,-0.17,-9.32,0.17,132.55,175.48,-427.77,3
22633,0.76,-10.8,-1.63,214.99,214.57,-397.71,3
22658,2.42,-13.94,-2.11,272.36,58.96,-379.05,3
22683,4,-14.91,-3.52,310.9,86.15,-380.63,3
22708,4.99,-18.28,-4.1,347.42,155.66,-383.13,3
22733,6.56,-19.65,-5.38,385.35,132.37,-370.75,3
22758,9.53,-19.65,-10.2,409.25,53.1,-369.23,3
22783,7.48,-19.65,-14.42,384.8,-238.17,-402.1,3
22808,0.57,-19.65,-18.77,254.25,-377.87,-436.97,3
22833,-3.27,-19.65,-19.22,109.62,-174.21,-401.18,3
22858,-6.64,-19.65,-19.22,-18,-225.43,-328.32,3
22883,-7.09,-19.65,-19.22,-156.78,-217.56,-234.72,3
22909,-5.07,-19.65,-19.22,-266.78,-57.87,-163.68,3
22933,-2.69,-19.65,-16.31,-353,-43.6,-133.93,3
22959,-2.3,-19.65,-14.17,-422.94,55,-132.4,3
22983,-2.56,-19.65,-12.53,-462.57,168.59,-150.76,3
23009,-4.13,-16.58,-10.69,-470.01,139.2,-147.34,3
23034,-5.57,-14.57,-8.86,-467.81,121.58,-118.07,3
23059,-7.67,-12.42,-6.9,-463.3,170.73,-71.73,3
23084,-7.57,-11.11,-5,-460.98,188.59,-33.93,3
23108,-7.05,-9.89,-3.68,-455.92,194.69,9.61,3
23134,-5.88,-9.2,-2.62,-444.15,159.93,67.29,3
23159,-4.86,-10.47,-0.32,-421.47,-2.26,139.12,3
23183,-5.52,-11.59,1.68,-380.07,-151.65,239.73,3
23209,-2.75,-15.14,2.08,-329.46,-188.97,349.3,3
23233,-1.17,-18.26,-1.15,-299.64,-212.99,435.82,3
23259,0.28,-19.65,-5,-352.02,-33.66,469.73,3
23283,9.27,-19.65,-5.2,-473.91,181.58,435.46,3
23308,16.91,-19.65,-2.42,-565.31,84.51,361.19,3
23334,18.6,-19.65,-0.11,-587.08,-115.13,291.07,3
23358,18.6,-19.65,2.4,-572.02,-132.26,233.14,3
23384,18.6,-19.65,1.73,-509.64,-85.92,179.12,3
23408,18.6,-19.65,-1.44,-457.51,-152.75,131.68,3
23434,18.6,-19.65,-2.81,-433.54,-124.82,85.28,3
23459,18.6,-19.65,-0.34,-387.14,-379.27,42.05,3
23484,18.6,-16.69,3.82,-381.78,187.68,-46.61,3
23509,18.6,-10.58,1.1,-307.81,-202.56,-129.66,3
23534,17.37,-8.24,3.54,-233.24,-167.38,-189.78,3
23559,13.71,-7.41,-6.4,-192.45,-397.68,-244.54,3
23584,13.61,-7.13,-1.57,-142.94,161.15,-285.75,3
23609,8.63,-6.85,-2.19,-86.47,38.11,-332.64,3
23634,8.56,-7.77,-2.39,-53.43,-158.17,-360.08,3
23659,6.34,-8.28,-1.94,-33.12,-92.08,-384.29,3
23684,3.7,-8.51,-1.31,-14.77,-108.23,-403.5,3
23708,2.27,-9.01,0.02,2.18,-106.95,-416.36,3
23734,1.54,-9.86,0.47,35.72,-66.1,-423.19,3
23759,0.65,-9.76,0.08,81.94,11.34,-428.38,3
23783,0.97,-11.19,-0.29,139.25,34.39,-423.92,3
23809,0.08,-11.98,-1.42,186.39,80.48,-426.79,3
23833,4.86,-14.18,-4.77,246.51,171.52,-419.23,3
23858,6.74,-18.17,-7.99,297.67,91.76,-412.4,3
23883,6.92,-19.65,-8.21,296.94,-78.3,-428.13,3
23908,7.01,-19.65,-9.64,273.52,1.95,-458.56,3
23934,6.04,-19.65,-13.12,262,100.97,-472.83,3
23958,7.36,-19.65,-15.12,246.63,59.32,-469.78,3
23984,6.83,-19.65,-19.22,201.94,-33.85,-466.42,3
24008,0.33,-19.65,-19.22,106.88,-185.25,-437.52,3
24033,-5.58,-19.65,-19.22,-44.22,-182.62,-352.95,3
24059,-4.73,-19.65,-19.22,-181.6,-63.6,-242.89,3
24083,-1.36,-18.78,-19.22,-282.88,-35.06,-184.11,3
24109,1.15,-18.5,-15.98,-348.67,51.76,-161.3,3
24133,2.51,-17.62,-12.33,-378.61,130.36,-177.59,3
24159,1.01,-14.73,-9.69,-371.05,125.42,-192.89,3
24184,0.21,-11.73,-8.35,-347.51,124.93,-185.88,3
24209,-1.76,-9.14,-7.38,-323.97,81.28,-156.12,3
24234,-3.71,-6.49,-7.34,-309.34,71.09,-111.85,3
24258,-3.58,-5.35,-6.52,-303.12,58.04,-59.54,3
24284,-3.34,-4.47,-5.3,-292.27,3.23,-3.32,3
24308,-4.52,-3.95,-4.85,-286.66,-53.85,59,3
24333,-4.37,-4.75,-3.93,-288.12,-75.8,130.64,3
24359,-3.41,-6.21,-3.13,-288.79,-74.94,201.19,3
24383,-1.24,-8.25,-2.33,-278.24,-141.22,269.12,3
24408,-0.22,-10.95,-2.15,-256.11,-251.89,347.84,3
24433,0.86,-14.25,-2.98,-234.28,-260.31,429.91,3
24458,1.23,-17.8,-4.35,-233.06,-219.94,498.57,3
24484,5.27,-19.65,-5.7,-279.52,-36.22,523.63,3
24508,9.32,-19.65,-4.53,-365.37,129.63,494.97,3
24534,12.8,-19.65,-2.82,-445.37,237.68,437.23,3
24558,15.72,-19.65,-2.52,-462.87,112.62,381.07,3
24584,16.75,-19.65,-3.76,-455.68,-39.82,343.69,3
24608,18.6,-19.65,-4.01,-442.75,-47.32,274.97,3
24633,18.47,-19.65,-3.08,-430.74,17.31,188.39,3
24659,18.6,-19.65,-1.52,-393.12,-120.61,126.07,3
24683,18.45,-17.71,-5.66,-350.37,-285.12,74.61,3
24709,16.82,-13.02,-8.89,-315.01,284.51,-14.72,3
24733,18.6,-9.87,3.68,-227.57,-233.78,-116.37,3
24759,17.61,-8.79,-2.32,-191.9,-248.6,-175.27,3
24784,11.93,-7.94,-3.96,-177.21,36.76,-229.17,3
24809,8.41,-8.33,-4.44,-154.1,51.46,-291.12,3
24834,7.33,-9.07,-3.94,-140.32,-85.98,-322.77,3
24858,6.58,-9.58,-3.25,-120.01,-57.75,-340.33,3
24884,4.7,-8.23,-2.23,-88.61,-79.09,-348.93,3
24909,3.65,-7.77,-1.47,-65.07,-136.34,-361.24,3
24933,2.6,-6.87,-1.3,-42.39,-63.11,-371.18,3
24959,2.39,-6.64,-0.72,-4.52,8.96,-380.57,3
24983,1.66,-7.5,-0.37,45.96,-1.16,-390.33,3
25008,0.02,-6.97,-0.43,92.24,25.42,-383.92,3
25032,0.67,-7.22,-0.92,143.46,53.59,-372.4,3
25058,2.24,-9.52,-1.88,194.5,58.41,-377.89,3
25083,2.63,-12.52,-3.64,238.09,23.17,-388.44,3
25107,1.99,-13.33,-5.63,263.09,53.29,-397.22,3
25133,4.47,-18.3,-7.25,283.4,110.3,-403.68,3
25157,3.7,-19.62,-9.72,287.97,38.96,-406.18,3
25183,4.3,-19.65,-11.12,290.84,83.9,-406.06,3
25208,7.72,-19.65,-12.25,299.8,101.52,-397.95,3
25233,7.33,-19.65,-16.95,283.09,-80.43,-403.92,3
25258,3.15,-19.65,-19.22,201.75,-190,-410.45,3
25283,-2.04,-19.65,-19.22,70.23,-157.69,-387.28,3
25308,-4.29,-19.65,-19.22,-68.98,-85.67,-318.19,3
25332,-5.08,-19.65,-19.22,-196.72,-92.44,-234.41,3
25358,-3.66,-19.65,-18.83,-295.68,-41.65,-172.16,3
25383,-1.46,-18.79,-14.33,-353.36,87.07,-146.18,3
25408,0.36,-17.34,-11.23,-368.12,121.34,-149.41,3
25433,-1.84,-14.23,-9.42,-359.58,107.68,-145.57,3
25458,-3.59,-10.87,-8.73,-349.58,128.53,-125.09,3
25483,-4.96,-8.8,-8.11,-343.55,155.73,-93.26,3
25509,-5.07,-7.6,-7.23,-340.68,164.81,-53.32,3
25533,-5.37,-7.08,-6.45,-339.4,136.52,-9.48,3
25558,-4.56,-6.3,-5.01,-345.37,91.58,34.85,3
25582,-4.03,-5.94,-3.58,-344.28,92.56,80.58,3
25608,-3.14,-7.06,-1.73,-335.74,139.99,125.09,3
25632,-3.42,-7.63,-1.29,-337.75,39.32,167.66,3
25658,-2.07,-8.27,-0.37,-325.13,-37.14,220.95,3
25683,1.81,-9.39,-0.38,-300.01,-70.67,271.13,3
25707,2.9,-11.48,-2.03,-287.02,-264.39,311.86,3
25733,6.09,-14.39,-3.4,-301.66,-213.72,349.79,3
25757,9.08,-18.07,-4.47,-352.33,-50.49,352.47,3
25783,11.13,-19.65,-3,-398.42,16.52,331.19,3
25808,12.37,-19.65,-0.97,-407.69,-24.39,305.76,3
25832,10.87,-19.65,-0.57,-386.05,-24.27,294.67,3
25858,12,-19.65,-2.62,-360.86,0.85,280.76,3
25882,16.47,-19.65,-2.59,-343.73,5.06,262.47,3
25908,17.21,-19.65,-2.76,-340.98,-84.52,212.65,3
25933,18.6,-19.65,-1.33,-334.4,-63.72,151.98,3
25957,18.6,-15.07,-0.36,-291.84,-23.42,70.64,3
25983,18.6,-12.24,0.48,-238.18,-57.26,-22.89,3
26007,18.6,-10.6,-1.67,-193.85,-85.55,-126.92,3
26033,17.59,-9.63,-3.39,-170.68,-71.41,-217.28,3
26057,12.76,-10.22,-4.9,-156.05,-67.93,-284.17,3
26083,9.56,-10.86,-4.96,-155.99,-93.54,-322.95,3
26108,7.71,-11.42,-3.58,-154.58,-97.93,-349.9,3
26132,4.96,-10.82,-2.22,-142.08,-140.86,-360.45,3
26158,3.36,-9.67,-1.16,-127.82,-153.3,-357.64,3
26182,1.5,-8.21,-0.53,-112.08,-131.1,-354.23,3
26208,0.87,-6.37,0.5,-80.8,-42.99,-347.4,3
26233,1.49,-5.86,0.86,-25.56,10.91,-349.29,3
26257,0.58,-4.96,0.38,38.22,-27.44,-349.9,3
26283,-0.81,-4.68,-0.31,89.25,-50.19,-346.49,3
26307,-0.8,-6.85,-1.64,130.23,-17.44,-353.44,3
26332,-1.61,-6.68,-4.22,157.61,10.85,-356.24,3
26357,-1.79,-8.49,-5.34,185.35,75.42,-356.97,3
26382,1.32,-11.61,-5.75,218.16,114.75,-361.3,3
26407,0.71,-14.02,-8.75,237.85,92.19,-370.94,3
26432,-1.14,-13.36,-8.34,244.86,149.63,-359.6,3
26457,3.97,-17.43,-6.88,290.84,305.6,-332.95,3
26482,8.25,-19.49,-12.93,349.5,178.23,-307.89,3
26507,8.31,-19.65,-18.07,347.79,-134.15,-313.25,3
26533,-1.58,-19.65,-19.22,224.01,-324.51,-338.68,3
26557,-2.41,-19.65,-19.22,63.16,-30.31,-311.79,3
26583,-0.8,-19.65,-19.22,-41.05,69.63,-270.08,3
26607,-1.8,-19.28,-19.22,-147.45,-94.82,-226.24,3
26632,0.19,-18.06,-18.77,-235.68,-0.98,-192.22,3
26658,1.13,-17.37,-15.08,-282.45,105.6,-195.21,3
26682,0.78,-15.91,-12.31,-296.47,95.48,-208.01,3
26708,0.11,-13.04,-11.03,-292.88,112.01,-205.21,3
26732,-2.31,-10.19,-10.68,-289.28,118.1,-192.59,3
26758,-4.35,-8.57,-10.02,-297.08,116.09,-163.93,3
26782,-3.85,-6.84,-8.92,-310.01,121.88,-128.74,3
26808,-4.76,-5.83,-7.43,-312.27,169.87,-90.88,3
26833,-4.68,-5.51,-6.2,-309.09,139.26,-51.67,3
26857,-5.07,-4.1,-5.17,-309.4,110.54,-8.99,3
26883,-3.63,-4.35,-3.59,-310.38,108.9,38.94,3
26907,-3.44,-4.79,-2.86,-309.95,50.91,85.64,3
26932,-2.49,-5.48,-1.94,-311.41,-15.13,136.56,3
26958,-1.13,-7.84,-1.59,-314.95,-43.6,186.8,3
26982,-0.53,-8.77,-1.2,-324.34,-86.83,237.9,3
27007,2.14,-11.99,-1.08,-335.74,-145.8,290.34,3
27032,5.07,-14.45,-1.13,-346.96,-199.64,341.43,3
27057,7.23,-18.42,-1.63,-351.59,-230.98,376.8,3
27082,9.04,-19.65,-2.46,-371.35,-150.92,395.64,3
27107,12.63,-19.65,-1.95,-384.15,6.82,388.08,3
27132,15.3,-19.65,-3.18,-372.33,-89.88,361.74,3
27157,16.98,-19.65,-4.53,-359.52,-105,316.31,3
27182,18.6,-19.65,-4.8,-350.25,-47.14,256.56,3
27207,18.6,-17.76,-4.98,-324.4,-88.48,182.78,3
27232,18.6,-16.17,-4.85,-306.23,-150.55,110.28,3
27258,18.6,-14.46,-3.46,-284.58,-83.97,21.68,3
27282,18.6,-11.28,-3.6,-253.12,-100.25,-74.11,3
27308,18.32,-10.05,-4.07,-223.85,-110.55,-158.62,3
27332,14.68,-9.28,-4.28,-196.66,-49.39,-225.21,3
27358,12.18,-9.01,-4.46,-174.46,-37.44,-275.27,3
27383,10.53,-9.39,-4.2,-149.58,-62.99,-312.28,3
27407,8.4,-9.08,-3.53,-125.32,-73.85,-340.39,3
27433,6.32,-8.25,-2.43,-95.13,-56.16,-360.88,3
27457,4.77,-8.14,-2.19,-61.9,-57.63,-370.21,3
27482,4.27,-7.86,-1.31,-35.5,-76.28,-372.58,3
27507,3.52,-8.55,-0.1,-2.09,-23.05,-383.5,3
27532,0.89,-7.22,0.02,39.68,21.82,-384.47,3
27557,0.49,-8.75,-0.01,92.06,79.02,-368.19,3
27581,-0.97,-7.13,-0.95,153.52,87.13,-351.24,3
27607,-0.01,-8.07,-1.46,211.39,112.43,-334.23,3
27631,1.49,-10.35,-1.68,270.23,168.47,-317.46,3
27657,4.17,-13.92,-3.15,326.63,204.14,-298.07,3
27682,4.88,-16.22,-5.98,369.98,187.74,-275.21,3
27707,7.8,-18.6,-7.02,406.32,189.57,-251.24,3
27732,12.31,-19.65,-11.31,434.8,71.52,-244.11,3
27756,8.88,-19.65,-17.1,403.95,-232.62,-277.1,3
27782,2.04,-19.65,-19.22,275.29,-293.78,-321.85,3
27806,4.03,-19.65,-19.22,123.4,-62.32,-315.45,3
27832,2.01,-19.65,-19.22,-6.23,-79.21,-291.12,3
27857,1.77,-19.65,-19.22,-134.46,-85.98,-267.22,3
27882,2.08,-19.65,-19.22,-229.34,66.03,-262.46,3
27907,3.22,-19.65,-18.21,-287.39,114.38,-281.06,3
27932,0.86,-17.98,-16.06,-314.64,149.69,-289.11,3
27957,1.48,-15.37,-15.06,-328.18,217.49,-291.55,3
27983,0.45,-12.92,-13.12,-328.18,200.24,-284.35,3
28007,-0.96,-10.43,-10.35,-318.36,127.31,-260.33,3
28033,-1.28,-8.12,-8.15,-309.28,142.19,-233.62,3
28057,-1.73,-6.3,-6.59,-294.7,150.48,-213.19,3
28082,-2.36,-5.08,-5.26,-277.02,96.15,-183.13,3
28107,-3.76,-4.45,-4.7,-268.73,76.58,-140.76,3
28132,-4.9,-3.99,-4.52,-274.7,54.75,-83.62,3
28157,-6.79,-4.1,-3.82,-293.91,11.15,-9.6,3
28182,-4.46,-6.08,-1.92,-306.66,-31.83,68.33,3
28207,-4.14,-8.1,-1.33,-321.05,-150.61,145.52,3
28231,-3.03,-11.05,-1.06,-340.37,-156.77,224.97,3
28257,-2.76,-15.05,-0.51,-381.23,-129.09,287.59,3
28282,0.57,-19.06,-0.21,-438.12,-48.36,330.15,3
28307,3.34,-19.65,1.89,-512.69,-20.61,342.23,3
28332,4.62,-19.65,7.43,-588.24,106.95,341.13,3
28357,12.72,-19.65,11.61,-581.47,159.38,310.76,3
28382,17.53,-19.65,10.1,-529.89,-2.99,252.17,3
28408,18.6,-19.65,10.91,-500.92,-141.16,162.66,3
28432,18.6,-19.65,11.28,-449.09,-88.6,48.02,3
28457,18.6,-19.65,7.39,-366.84,-114.64,-32.65,3
28482,17.2,-19.65,3.27,-313.06,-179.27,-95.7,3
28507,16.85,-19.65,0.66,-289.46,-144.52,-140.94,3
28532,16.41,-17.3,-0.63,-276.47,-127.02,-190.82,3
28557,17.81,-14.75,-1.29,-256.17,-94.94,-253.8,3
28583,15.74,-14.34,-2.23,-225.86,-91.41,-321.67,3
28607,12.33,-14.66,-1.74,-200.44,-115.31,-358.86,3
28633,9.67,-13.05,-0.88,-167.39,-104.64,-372.1,3
28657,7.14,-11.81,-0.21,-134.95,-89.88,-383.25,3
28683,5.49,-10.85,0.28,-98.61,-80.13,-384.35,3
28708,3.36,-9.14,1.05,-52.94,-51.71,-375.14,3
28732,2.43,-8.01,1.44,-5.01,-50,-360.02,3
28758,0.58,-6.95,1.09,38.95,-57.69,-344.47,3
28782,-0.44,-5.96,1.21,79.86,-1.22,-324.47,3
28807,-0.1,-7.24,1.4,132.36,69.57,-304.29,3
28831,-2.22,-5.53,0.91,186.81,82.37,-282.04,3
28857,-0.91,-6.53,0.52,246.39,126.82,-251.85,3
28882,0.47,-9.29,-0.46,304.5,127.86,-223.07,3
28907,3.06,-12.05,-1.56,353.58,125.67,-198.74,3
28932,5.57,-13.39,-2.65,401.39,171.46,-175.7,3
28956,9.55,-17.5,-4.15,437.85,110.36,-169.96,3
28982,14.39,-19.63,-10.64,447.36,53.04,-200.27,3
29007,16.11,-19.65,-16.48,403.34,-6.96,-251.97,3
29032,12.26,-19.65,-19.22,302.12,-35.31,-317.83,3
29057,11.74,-19.65,-19.22,171.57,80.48,-359.53,3
29082,12.47,-19.65,-19.22,80.35,141.88,-375.08,3
29107,11.27,-19.65,-19.22,21.39,111.64,-383.56,3
29133,11.87,-18.5,-17.47,-7.33,225.91,-379.29,3
29157,12.21,-15.23,-15.63,-10.07,200.85,-381.67,3
29183,9.95,-13.86,-14.34,-20.07,142.49,-384.72,3
29207,10.85,-11.64,-13.63,-32.02,249.26,-379.72,3
29233,10.41,-9.68,-13.19,-36.41,206.94,-371.18,3
29257,7.66,-8.36,-11.05,-62.63,104.99,-354.11,3
29282,5.42,-7.09,-10.95,-106.84,42.07,-332.83,3
29308,2.89,-5.48,-7.51,-101.11,249.63,-281.67,3
29332,0.49,-4.48,-6.81,-100.74,-10,-223.26,3
29358,-3.28,-2.28,-7.73,-124.04,-204.39,-150.45,3
29382,-5.17,-2.72,-7.4,-167.94,-180.06,-58.93,3
29407,-6.41,-3.2,-7.23,-223.06,-133.17,29.79,3
29433,-4.81,-5.33,-6.24,-269.89,-158.6,115.09,3
29457,-1.46,-7.67,-5.07,-311.23,-168.23,184.12,3
29483,-1.17,-11.37,-4.21,-355.25,-211.04,240.89,3
29507,0.23,-15.81,-3.24,-409.4,-175,297.17,3
29532,6.26,-19.65,-1.93,-462.63,-84.09,332.29,3
29557,11.13,-19.65,-1.01,-508,-152.32,339.36,3
29582,14.13,-19.65,-0.61,-540.07,-198.48,328.69,3
29608,17.86,-19.65,0.27,-566.1,-112.99,301.68,3
29632,18.6,-19.65,0.69,-561.59,-102.14,265.09,3
29658,18.6,-19.65,-1.4,-541.96,-231.89,225.34,3
29682,18.6,-19.65,-1.01,-514.15,-236.65,179.61,3
29708,18.6,-19.65,0.23,-454.46,-158.17,114.3,3
29733,18.6,-15.92,1.39,-371.29,-151.22,36.68,3
29758,18.6,-11.99,0.15,-299.09,-103.54,-47.16,3
29783,18.6,-9.72,-0.59,-244.52,-4.09,-129.11,3
29808,18.33,-8.25,-1.55,-182.21,40.85,-211,3
29833,15.48,-7.31,-3.12,-147.45,-90.98,-272.16,3
29858,12.19,-8.81,-3.5,-130.19,-62.75,-324.96,3
29883,7.65,-10.16,-2.14,-109.95,-79.15,-358.07,3
29908,4.76,-8.66,-1.03,-83.12,-66.59,-366.12,3
29932,3.47,-7.13,0.41,-44.1,-28.42,-363.92,3
29958,3.22,-7.87,1.19,4.26,-41.04,-371.79,3
29982,1.18,-7.53,1.21,51.27,-20.13,-375.63,3
30007,-0.63,-7.27,1.29,110.78,74.75,-362.16,3
30033,-0.84,-6.63,1.26,175.9,120.67,-342.95,3
30057,0.7,-9.32,-0.12,242.49,202.98,-316,3
30082,1.7,-9.99,-2.08,312.3,283.65,-268.86,3
30107,4.7,-13.27,-3.75,365.72,213.96,-233.01,3
30132,8.34,-16.34,-5.58,401.69,226.21,-216.67,3
30158,11.06,-17.68,-8.08,431.2,228.23,-209.72,3
30182,16.37,-19.65,-11.47,440.96,203.84,-211.43,3
30208,15.85,-18.73,-18.64,402.18,-54.7,-244.23,3
30232,12.76,-19.65,-19.22,288.03,-117.81,-303.62,3
30258,12.35,-19.65,-19.22,142.73,16.95,-335.94,3
30282,11,-19.11,-19.22,41.51,56.89,-344.53,3
30308,9.45,-17.01,-19.15,-32.09,42.25,-347.89,3
30333,9.39,-15.15,-15.35,-61.23,115.42,-349.11,3
30358,7.84,-12.54,-13.04,-63.85,106.64,-343.13,3
30383,8.07,-10.51,-12.56,-60.68,129.57,-331.12,3
30408,7.11,-8.26,-13.03,-64.77,101.88,-314.84,3
30433,5.14,-6.74,-11.99,-80.87,49.81,-296.49,3
30458,4.84,-5.64,-11.09,-101.84,86.4,-278.62,3
30483,4.16,-5.03,-10.91,-116.35,126.4,-266.73,3
30508,2.29,-3.89,-11.45,-132.57,86.58,-244.29,3
30533,1.24,-3.04,-11.17,-158.12,5,-211.24,3
30558,-0.75,-2.3,-9.96,-182.33,48.53,-159.84,3
30583,-2.78,-1.83,-8.77,-219.28,-44.94,-110.76,3
30608,-3.44,-2.61,-7.48,-261.84,-67.69,-52.65,3
30633,-4.16,-3.85,-5.63,-294.7,-46.53,9.79,3
30657,-4.08,-4.89,-4.09,-325.74,-141.1,75.4,3
30683,-2.98,-7.36,-1.63,-349.16,-154.82,148.51,3
30707,-0.56,-8.69,-0.23,-363.61,-169.09,207.96,3
30732,3.43,-10.68,1.01,-364.58,-252.2,259.61,3
30758,5.26,-13.65,-0.02,-357.57,-356.65,316.5,3
30782,7.51,-17.55,-1.87,-368.42,-304.27,370.4,3
30808,14.61,-19.65,-2.03,-407.2,-155.12,381.07,3
30832,17.25,-19.65,-3.06,-445.92,-107.02,339.79,3
30858,16.94,-19.65,-2.8,-474.7,-60.92,293.2,3
30883,16.89,-19.65,-2.74,-486.29,-68.05,252.11,3
30908,18.6,-19.65,-2.42,-475.31,-107.87,215.76,3
30933,18.6,-19.65,-1.68,-445.98,-203.36,178.39,3
30958,18.6,-19.21,-1.75,-411.65,-187.32,125.7,3
30983,18.6,-14.04,0.05,-370.92,-38.3,42.41,3
31007,18.6,-12.51,0.98,-303.06,-53.42,-59.78,3
31033,18.6,-10.04,0.11,-246.53,-102.93,-138.07,3
31058,18.48,-8.57,-0.95,-199.4,-32.69,-217.77,3
31083,13.26,-7.62,-1.51,-155.86,-33.72,-277.34,3
31108,10,-6.57,-1.64,-126.05,-31.59,-312.95,3
31132,8.43,-7.53,-0.88,-91.54,-0.74,-345.08,3
31158,6.42,-7.77,0.14,-51.6,-43.66,-364.41,3
31183,4.77,-6.84,1.34,-8.31,-17.32,-369.11,3
31207,3.71,-7.13,1.48,40.47,-36.89,-373.62,3
31233,1.72,-6.97,1.27,83.16,-19.94,-367.95,3
31257,0.92,-6.86,1.62,137.18,59.57,-352.58,3
31282,1.31,-7.86,1.26,207.18,79.02,-332.64,3
31307,0.64,-8.99,0.13,267.12,38.65,-315.08,3
31332,1.58,-11,-1.04,324.8,152.49,-291.67,3
31357,2.95,-13.86,-2.08,374.44,131.64,-267.89,3
31382,4.86,-16.74,-2.94,411.51,178.35,-247.89,3
31407,8.19,-19.53,-5.32,442.3,218.35,-225.33,3
31432,13.59,-18.16,-9.7,464.92,148.04,-207.71,3
31457,12.46,-19.65,-13.29,452.91,-194.94,-236.91,3
31483,6.44,-19.65,-17.98,350.11,-347.93,-300.69,3
31507,7.53,-19.65,-19.22,223.16,-108.6,-336.36,3
31533,6.28,-19.65,-19.22,124.07,-123.91,-339.84,3
31557,5.43,-19.65,-19.22,24.26,-201.77,-342.03,3
31583,5.21,-19.65,-18.25,-58.3,-40.13,-335.33,3
31608,3.94,-18.91,-16.94,-119.65,-45.8,-333.74,3
31633,2.42,-17.15,-15.43,-173.49,-37.93,-325.21,3
31658,1.57,-15.73,-14.52,-208.24,68.1,-313.62,3
31682,1.49,-14.15,-14.02,-226.53,70.85,-297.95,3
31708,-0.34,-11.93,-13.86,-246.9,42.68,-265.15,3
31732,-0.44,-9.48,-13.03,-272.27,92.92,-233.62,3
31758,-1.77,-8.23,-11.49,-296.53,123.29,-210.94,3
31783,-2.19,-7.02,-10.29,-314.83,170.3,-185.15,3
31808,-3.42,-6.31,-9.13,-326.23,128.23,-153.44,3
31833,-4.93,-5.04,-8.2,-351.41,116.46,-104.29,3
31857,-6.36,-5.11,-6.3,-377.63,102.25,-43.26,3
31883,-6.58,-5.87,-3.27,-399.95,66.28,22.78,3
31908,-4.85,-8.06,-0.24,-403.36,18.35,89.91,3
31932,-3.25,-9.04,1.62,-392.08,-104.94,164.48,3
31958,0.23,-12.77,1.48,-372.39,-186.59,241.92,3
31982,5.44,-12.39,0.26,-354.89,-301.04,313.32,3
32008,9.57,-15.51,-2.44,-352.69,-447.87,360.03,3
32032,13.18,-18.7,-5.86,-401.47,-295.79,369.54,3
32058,16.11,-19.65,-4.7,-470.19,-77.26,319.67,3
32083,18.5,-19.65,-0.77,-513.6,-6.47,253.33,3
32108,14.58,-19.65,1.1,-486.78,-35.92,210.52,3
32133,15.58,-19.65,-0.19,-455.5,-76.1,178.87,3
32157,16.96,-19.65,0.19,-419.46,-75.19,163.45,3
32183,18.6,-18.5,-0.15,-383.85,-160.19,132.78,3
32208,18.6,-16.44,0.11,-361.17,-129.94,82.96,3
32233,18.6,-14.87,2.79,-321.17,93.1,9.91,3
32258,18.6,-9.46,1.49,-262.39,-64.09,-79.66,3
32282,18.6,-7.68,1.14,-211.11,-37.93,-162.95,3
32308,17.87,-6.96,0.07,-158.73,-42.69,-241.91,3
32333,12.55,-7.12,-0.81,-123.3,-82.5,-293.5,3
32358,9.16,-6.57,-0.35,-96.41,-33.05,-320.14,3
32383,6.96,-7.11,0.34,-61.54,3.41,-338.25,3
32407,5.7,-7.24,0.8,-21.9,-30.49,-349.53,3
32432,3.55,-6.82,1.03,19.01,-30.07,-343.74,3
32457,2.41,-6.13,1.26,62.61,-43.48,-328.93,3
32482,1.7,-5.02,1.27,105.72,-61.53,-316.36,3
32507,1.42,-5.2,1.5,149.19,-44.88,-305.57,3
32532,0.54,-5.85,1.06,201.08,-15.8,-299.17,3
32557,1.1,-7.75,-0.13,254.13,-7.5,-291.36,3
32581,1.46,-8.48,-1.57,303.22,47.8,-285.82,3
32607,4.16,-12.22,-1.96,354.01,101.88,-286.67,3
32632,7.04,-18.6,-2.58,405.65,78.41,-293.8,3
32656,7.02,-19.65,-4.62,448.21,-0.92,-305.51,3
32682,7.29,-19.65,-7.5,465.59,-77.38,-326,3
32706,7.8,-19.65,-12.27,442.3,-154.94,-352.95,3
32732,2.52,-19.65,-14.83,356.69,-422.07,-390.45,3
32756,-3.79,-19.65,-16.8,191.21,-365.55,-408.31,3
32782,-3.36,-19.65,-17.17,68.71,-86.47,-373.25,3
32807,-4.28,-19.65,-17.26,-11.17,-166.77,-328.62,3
32832,-4.54,-19.65,-16.01,-97.27,-185.8,-272.22,3
32857,-4.49,-19.65,-15.71,-172.33,-75.37,-223.74,3
32882,-3.03,-18.63,-15.96,-240.5,-25.55,-198.56,3
32907,-2.04,-17.51,-15.02,-298.73,19.57,-187.59,3
32932,-2.45,-16.63,-13.83,-345.37,80.06,-181.49,3
32957,-2.34,-14.41,-12.54,-374.34,134.69,-178.5,3
32982,-3.5,-12.55,-10.75,-389.03,123.29,-163.68,3
33007,-4.89,-10.71,-9.03,-394.15,139.87,-135.88,3
33032,-5.63,-8.66,-7.72,-395.86,180.3,-104.48,3
