.03,8.00,0.21,1.57,8.53,-20.76,0
24451,-7.10,8.00,0.24,1.33,16.28,-20.15,0
24402,-6.70,7.90,0.38,1.45,-0.61,-22.46,0
24426,-7.03,8.00,0.21,1.57,8.53,-20.76,0
24451,-7.10,8.00,0.24,1.33,16.28,-20.15,0
Initialize MPU6050
* Clock Source: 1
* Accel Range:  0
* Accel Offset Registers: -1530 / -493 / 432
===== Calibration Complete =====
t_ms,ax,ay,az,gx,gy,gz,label
5,-6.73,7.59,0.38,13.34,0.30,-8.44,0
29,-6.93,7.73,0.08,11.82,3.78,-6.18,0
54,-7.38,7.80,-0.09,8.65,0.06,-3.81,0
79,-7.42,7.91,-0.07,6.21,2.13,-0.03,0
103,-7.24,8.07,0.04,4.50,2.07,3.21,0
127,-7.37,8.09,-0.11,3.40,-0.37,4.91,0
151,-7.49,7.88,-0.44,3.10,-4.88,9.43,0
176,-7.08,7.75,-0.52,2.43,-1.28,15.77,0
201,-6.69,7.82,-0.46,-0.20,3.90,19.30,0
226,-6.23,7.90,-0.26,-4.28,7.86,19.85,0
251,-6.06,8.15,-0.05,-7.02,4.63,16.56,0
275,-5.79,8.10,0.21,-8.37,0.48,12.23,0
300,-5.90,8.00,0.32,-8.37,-4.09,8.39,0
324,-6.02,7.92,0.43,-6.05,-5.55,6.38,0
349,-6.17,7.85,0.30,-3.49,-2.20,5.28,0
373,-6.38,7.80,0.10,-2.70,-2.57,5.77,0
398,-6.54,7.76,0.08,-2.94,-1.47,8.21,0
423,-6.12,7.85,0.21,-2.57,0.36,9.30,0
447,-5.70,7.97,0.42,-1.05,-0.37,8.27,0
472,-5.63,7.88,0.42,0.84,0.61,6.38,0
496,-5.70,7.91,0.25,2.55,1.22,4.43,0
521,-5.84,8.02,0.05,2.37,2.31,3.39,0
546,-5.93,8.07,-0.03,0.29,1.82,2.29,0
570,-6.10,8.01,0.01,-1.96,0.42,2.78,0
595,-5.96,8.09,0.06,-2.27,1.64,3.69,0
619,-5.81,8.13,0.17,-1.78,3.11,3.02,0
644,-5.68,8.05,0.12,-2.21,3.17,1.19,0
668,-5.91,8.10,0.15,-2.76,-0.92,-0.64,0
693,-6.06,8.07,0.16,-2.94,-0.86,0.10,0
718,-5.83,8.08,0.25,-2.39,2.13,0.03,0
742,-5.79,8.06,0.35,-1.29,1.95,-1.92,0
767,-6.06,8.04,0.27,-1.41,-0.49,-3.07,0
791,-6.11,8.13,0.33,-0.62,-1.04,-2.47,0
816,-6.19,8.15,0.37,1.09,0.67,-1.25,0
840,-6.32,8.23,0.29,1.82,1.82,-0.70,0
865,-6.27,8.17,0.26,1.63,0.61,-0.03,0
890,-6.26,8.21,0.14,1.39,0.85,0.58,0
914,-6.37,8.09,-0.01,0.84,1.34,1.32,0
939,-6.28,8.15,-0.07,-0.50,0.85,2.35,0
963,-6.16,8.05,0.04,-1.90,-0.74,2.78,0
988,-5.99,8.07,0.13,-3.24,-0.98,2.84,0
1012,-5.94,8.10,0.33,-3.00,-1.53,1.80,0
1037,-5.97,8.21,0.40,-1.29,-1.28,1.07,0
1062,-5.99,8.20,0.31,-0.26,0.18,0.64,0
1086,-6.15,8.11,0.18,0.05,-0.25,0.58,0
1111,-6.24,8.15,0.12,-0.13,-0.55,1.74,0
1135,-6.07,8.16,0.22,-0.26,-0.31,3.14,0
1160,-5.94,8.16,0.32,-0.07,-0.13,3.94,0
1184,-5.77,8.25,0.31,0.35,0.67,3.45,0
1209,-5.86,8.30,0.24,0.90,2.07,1.80,0
1234,-6.00,8.15,0.07,0.66,-0.25,1.50,0
1258,-6.10,8.11,0.02,0.05,-1.41,2.23,0
1283,-6.06,8.18,0.01,-0.44,0.61,2.72,0
1307,-6.03,8.23,0.02,-1.66,0.06,3.14,0
1332,-5.93,8.31,0.17,-2.45,-1.59,2.60,0
1357,-6.00,8.38,0.27,-2.15,-2.20,2.41,0
1381,-5.88,8.28,0.33,-0.87,-0.80,3.51,0
1406,-5.77,8.29,0.34,0.11,1.22,4.00,0
1430,-5.83,8.21,0.17,-0.56,0.67,2.84,0
1455,-5.87,8.29,0.24,-0.87,-0.74,2.90,0
1479,-5.77,8.18,0.23,-0.50,-1.22,3.63,0
1504,-5.57,8.06,0.12,-0.13,1.03,3.82,0
1529,-5.44,7.97,0.18,-0.93,2.50,2.78,0
1553,-5.46,8.11,0.21,-1.72,-0.49,0.03,0
1578,-5.62,8.18,0.33,-1.48,-1.53,-1.86,0
1602,-5.72,8.20,0.29,-0.38,1.22,-2.77,0
1627,-5.80,8.31,0.30,-0.20,0.54,-3.50,0
1651,-5.93,8.32,0.32,-0.26,-1.96,-4.23,0
1676,-6.12,8.28,0.30,0.29,-2.26,-2.28,0
1701,-6.19,8.43,0.35,1.09,0.48,-0.03,0
1725,-6.09,8.51,0.31,1.45,1.28,1.25,0
1750,-6.06,8.49,0.27,1.82,0.42,1.50,0
1774,-6.30,8.43,0.15,1.57,-0.13,2.72,0
1800,-6.13,8.27,-0.02,-0.07,-0.61,5.16,0
1824,-5.95,8.27,0.02,-2.33,-0.37,6.19,0
1849,-5.81,8.34,0.15,-3.37,-1.41,5.77,0
1874,-5.76,8.37,0.30,-3.06,-0.61,4.79,0
1898,-5.66,8.31,0.33,-2.33,-1.10,4.12,0
1923,-5.84,8.28,0.25,-2.21,-0.43,4.36,0
1947,-5.85,8.25,0.30,-2.63,-1.71,5.77,0
1972,-5.71,8.32,0.41,-2.57,-0.19,5.83,0
1997,-5.73,8.35,0.43,-2.27,-0.43,5.89,0
2021,-5.70,8.37,0.38,-1.96,-0.98,5.89,0
2046,-5.71,8.43,0.40,-1.17,-0.25,5.71,0
2070,-5.55,8.34,0.40,-1.23,-0.31,5.77,0
2095,-5.53,8.32,0.34,-1.05,-1.16,5.95,0
2119,-5.57,8.31,0.31,-1.23,-0.43,5.71,0
2144,-5.40,8.28,0.45,-1.05,-0.00,5.16,0
2169,-5.23,8.42,0.47,-0.20,-0.00,4.06,0
2193,-5.30,8.35,0.45,0.66,1.76,2.60,0
2218,-5.44,8.34,0.34,0.48,1.52,1.99,0
2242,-5.42,8.40,0.28,-0.44,-0.43,2.05,0
2267,-5.52,8.50,0.29,-1.29,-1.35,1.80,0
2291,-5.60,8.47,0.31,-1.60,-0.92,1.62,0
2316,-5.77,8.58,0.43,-1.48,-1.22,1.62,0
2341,-5.94,8.56,0.37,-1.66,-2.32,3.69,0
2365,-6.01,8.48,0.41,-1.90,-1.16,6.13,0
2391,-6.42,8.26,0.30,-2.09,3.53,10.52,0
2415,-6.35,8.25,0.85,-1.17,5.06,19.79,0
2440,-6.11,8.49,1.03,3.71,9.02,27.11,0
2464,-5.77,8.44,0.80,7.73,9.14,32.60,0
2489,-4.85,8.44,0.62,9.44,2.68,34.55,0
2514,-3.45,8.54,0.44,10.29,2.80,30.77,0
2538,-1.95,8.55,0.03,8.71,-10.80,18.45,0
2563,-0.15,8.37,-0.51,4.50,-25.92,-3.87,0
2587,0.70,7.89,-0.80,-0.87,-31.47,-31.86,0
2612,1.42,7.22,-0.62,-6.48,-29.21,-60.94,0
2638,1.97,6.68,-0.63,-10.38,-38.97,-94.35,0
2662,2.02,6.20,-0.41,-15.01,-35.55,-136.61,0
2687,1.31,4.97,-0.92,-22.09,-30.74,-179.48,0
2711,0.32,3.28,-0.95,-28.91,-8.30,-218.56,0
2737,-0.10,1.34,-0.91,-36.48,-23.17,-255.51,0
2761,-0.61,-0.82,-0.96,-47.51,-40.92,-293.68,0
2786,-1.35,-3.45,-1.12,-62.27,-42.20,-336.79,0
2811,-2.73,-6.75,-0.95,-82.51,-53.72,-373.68,0
2836,-3.74,-10.42,0.88,-103.06,-115.86,-406.79,0
2861,-8.40,-13.65,1.61,-132.88,-123.05,-434.05,0
2885,-16.08,-15.29,4.13,-149.95,-54.88,-408.19,0
2911,-20.60,-13.85,8.06,-138.24,-53.11,-329.29,0
2936,-20.60,-11.64,11.02,-113.24,-133.11,-198.50,0
2961,-20.60,-10.25,11.75,-69.46,-67.44,-55.21,0
2986,-20.60,-9.19,12.05,-18.24,120.30,47.35,0
3010,-20.60,-9.18,9.42,9.13,143.16,106.80,0
3036,-18.56,-7.35,7.62,29.62,91.21,142.59,0
3060,-17.25,-6.16,5.80,41.27,147.68,170.89,0
3085,-16.54,-5.61,3.95,40.29,192.49,202.84,0
3111,-15.50,-5.79,1.07,26.51,146.64,228.75,0
3135,-14.37,-5.38,0.68,11.51,115.73,247.17,0
3160,-12.85,-4.59,0.57,7.43,86.89,257.17,0
3185,-12.12,-3.80,-0.11,4.74,58.47,257.96,0
3210,-11.20,-2.94,-0.81,1.63,23.78,256.13,0
3235,-10.16,-1.72,-1.30,-3.12,9.26,251.80,0
3259,-9.67,-0.73,-1.48,-9.77,28.29,245.52,0
3284,-8.97,0.45,-1.60,-14.52,19.02,240.40,0
3309,-7.37,1.44,-1.39,-17.39,-0.31,234.00,0
3334,-6.57,2.81,-1.02,-19.40,5.36,217.84,0
3358,-6.26,3.61,-1.43,-21.35,29.75,203.81,0
3383,-5.25,4.11,-1.06,-25.74,12.80,194.42,0
3409,-4.49,5.36,-0.54,-23.55,-3.48,180.95,0
3433,-4.10,6.03,-0.25,-19.95,7.19,168.57,0
3458,-3.16,6.24,-0.32,-17.82,0.06,159.48,0
3482,-2.64,6.41,-0.40,-15.80,-10.25,149.61,0
3507,-1.95,6.79,-0.14,-12.27,-16.96,141.62,0
3533,-0.76,7.06,-0.09,-13.85,5.24,129.61,0
3557,0.04,7.16,-0.12,-12.39,-1.41,115.16,0
3582,1.19,7.23,0.03,-10.44,1.58,100.22,0
3606,1.97,7.46,0.09,-9.95,-4.88,80.10,0
3631,2.62,7.56,0.27,-10.68,-4.33,59.12,0
3655,3.35,7.41,0.29,-9.59,-17.93,36.25,0
3681,3.69,7.35,0.59,-7.02,-8.78,12.23,0
3706,3.51,7.63,0.69,-1.23,-0.68,-11.92,0
3730,3.35,7.84,0.71,2.91,-9.46,-34.54,0
3755,3.05,8.36,0.56,6.88,-18.11,-62.28,0
3779,2.65,7.90,0.57,9.32,-29.52,-89.60,0
3804,2.01,7.38,0.50,12.85,-33.54,-113.74,0
3828,2.16,6.35,0.44,14.26,-38.78,-133.62,0
3854,2.60,6.12,0.42,13.34,-47.32,-160.27,0
3879,2.33,5.84,0.74,17.61,-35.98,-200.21,0
3903,1.57,4.44,0.52,21.63,-37.99,-240.69,0
3928,1.51,2.46,0.22,25.48,-26.71,-280.88,0
3953,2.81,0.32,0.37,41.57,65.67,-337.03,0
3978,3.10,-4.33,-0.04,77.12,155.24,-420.94,0
4003,1.68,-11.88,-0.32,90.05,-41.28,-503.25,0
4027,-6.38,-18.06,-2.25,40.78,-260.43,-560.20,0
4053,-16.71,-17.91,-0.00,-36.54,-334.51,-529.29,0
4077,-20.60,-11.79,2.89,-93.12,-288.84,-408.86,0
4103,-20.60,-8.92,6.45,-101.11,-186.22,-246.30,0
4127,-20.60,-8.87,8.42,-71.23,-22.87,-102.40,0
4152,-20.60,-9.28,6.10,-49.04,105.48,-22.46,0
4178,-18.12,-9.08,6.18,-43.79,53.47,3.82,0
4202,-17.71,-7.63,6.29,-32.76,74.63,13.57,0
4227,-17.90,-6.08,5.70,-24.46,-11.77,33.75,0
4251,-17.16,-4.42,5.80,-7.33,83.04,67.41,0
4277,-16.45,-4.38,3.88,1.57,65.24,102.78,0
4302,-16.11,-4.61,2.88,2.24,109.45,132.90,0
4326,-15.53,-4.61,2.42,1.33,62.43,160.34,0
4351,-14.19,-4.35,1.83,7.61,55.00,181.74,0
4376,-12.89,-4.16,1.29,9.50,52.31,190.58,0
4401,-12.50,-3.58,0.94,10.72,25.42,194.79,0
4425,-12.04,-2.81,0.49,11.51,32.13,201.68,0
4450,-11.53,-2.11,0.00,10.11,31.46,207.84,0
4476,-11.16,-1.49,-0.22,6.88,52.25,210.64,0
4500,-10.41,-0.73,-0.50,2.00,46.09,210.89,0
4525,-9.33,0.29,-0.76,-2.51,21.40,210.89,0
4549,-8.65,1.28,-1.10,-6.11,23.78,205.28,0
4575,-7.84,2.24,-1.17,-10.01,21.03,197.23,0
4600,-6.62,3.34,-0.72,-10.93,1.82,185.46,0
4624,-6.26,4.11,-1.36,-13.00,-2.14,173.20,0
4649,-5.78,5.00,-1.39,-17.82,14.02,160.64,0
4673,-5.17,5.29,-1.49,-23.79,-5.00,148.63,0
4699,-4.71,5.72,-1.07,-29.22,-19.21,139.91,0
4723,-4.48,6.55,-0.80,-27.27,-7.75,129.73,0
4748,-3.95,7.05,-0.41,-27.33,-4.88,119.97,0
4773,-3.93,7.22,-0.77,-30.01,-12.38,109.73,0
4797,-4.11,7.22,-0.76,-34.40,-33.30,107.11,0
4823,-3.93,7.38,0.28,-34.77,-10.00,111.25,0
4847,-3.02,7.55,0.51,-31.72,4.63,111.56,0
4872,-1.89,7.82,0.92,-27.94,-1.59,106.13,0
4896,-0.92,7.71,1.15,-23.67,-16.71,99.79,0
4922,0.01,8.15,1.54,-16.11,-11.96,87.41,0
4947,0.81,8.22,1.80,-9.40,-9.21,71.44,0
4971,1.29,8.22,1.82,-3.79,-13.97,55.34,0
4996,1.53,7.99,1.69,2.37,-13.42,40.40,0
5020,1.98,7.71,1.43,7.06,6.15,26.01,0
5045,2.52,7.89,1.37,9.44,3.53,8.21,0
5070,2.53,7.93,1.20,10.90,-3.36,-11.61,0
5094,2.50,8.35,1.50,15.05,-14.21,-34.48,0
5120,2.01,8.24,0.72,17.30,-12.69,-58.20,0
5144,1.48,7.65,0.15,13.95,-17.32,-78.38,0
5169,1.47,7.31,0.08,8.10,-23.36,-94.84,0
5193,2.08,7.76,0.81,5.96,-38.36,-121.49,0
5218,1.57,7.10,0.61,6.69,-42.26,-153.13,0
5243,1.18,5.95,0.21,2.98,-41.53,-179.78,0
5268,1.19,5.12,0.44,-0.93,-54.64,-209.05,0
5293,0.58,3.95,-0.03,-7.82,-58.97,-247.28,0
5317,-0.87,2.22,-0.92,-17.02,-24.52,-289.23,0
5342,-1.88,-0.32,-1.28,-30.62,-23.05,-324.54,0
5368,-1.08,-2.64,0.01,-44.34,-58.66,-364.90,0
5392,-0.24,-7.00,2.05,-45.87,-40.74,-433.44,0
5417,-3.54,-12.47,1.73,-38.18,-23.11,-506.48,0
5441,-10.34,-17.24,1.98,-52.39,-86.22,-521.42,0
5467,-18.43,-15.81,5.27,-66.11,-202.56,-462.52,0
5491,-20.60,-11.82,7.93,-69.95,-211.89,-342.77,0
5517,-20.60,-9.49,8.51,-57.57,-100.06,-190.57,0
5542,-20.60,-9.30,8.51,-31.23,30.42,-56.43,0
5566,-20.60,-11.09,6.14,-23.79,149.32,24.49,0
5592,-18.39,-9.65,6.56,-33.79,77.98,52.72,0
5616,-17.91,-7.27,7.57,-24.65,86.28,72.53,0
5641,-17.84,-5.71,7.24,-5.87,86.09,101.92,0
5666,-18.19,-5.93,5.72,4.32,-4.03,144.24,0
5691,-17.88,-5.95,4.16,12.98,114.87,190.03,0
5716,-15.83,-5.76,3.88,16.27,128.10,223.45,0
5740,-13.57,-5.52,3.12,20.23,78.65,239.91,0
5765,-12.25,-4.97,2.16,22.00,63.04,241.80,0
5790,-11.59,-4.09,1.60,21.76,56.21,243.39,0
5815,-10.55,-2.87,1.37,23.10,52.19,242.41,0
5840,-9.98,-2.09,0.38,22.55,28.17,237.78,0
5865,-9.49,-0.97,0.28,19.44,37.62,235.76,0
5890,-8.03,0.12,0.09,16.63,29.51,231.80,0
5914,-7.21,0.97,-0.26,13.16,0.42,219.85,0
5939,-7.59,2.05,-0.74,9.19,20.18,208.51,0
5963,-6.59,2.69,-1.05,1.02,6.09,202.53,0
5989,-6.00,3.63,-1.13,-3.43,-3.54,194.24,0
6014,-4.87,4.36,-0.75,-8.06,9.02,186.62,0
6038,-3.55,5.47,-0.38,-9.10,-6.47,173.39,0
6063,-3.06,5.91,-0.46,-8.73,5.97,159.67,0
6087,-2.93,6.79,-0.14,-9.16,18.53,147.53,0
6112,-2.19,6.87,-0.36,-8.79,11.52,136.80,0
6138,-2.12,7.03,-0.08,-6.23,-3.42,126.13,0
6162,-1.79,7.28,-0.20,-7.21,-3.54,120.64,0
6187,-1.76,7.72,-0.29,-7.88,-4.88,114.97,0
6211,-0.94,7.39,-0.27,-11.11,-0.61,112.72,0
6236,0.13,7.93,0.03,-10.99,-5.86,104.24,0
6260,0.80,8.24,0.50,-8.37,-0.80,91.38,0
6285,1.40,8.46,0.66,-6.29,-15.00,77.41,0
6311,2.45,8.10,0.50,-4.04,-6.83,61.86,0
6335,3.63,8.42,0.66,-1.60,-9.88,40.40,0
6360,3.90,8.87,0.86,3.71,-9.03,13.08,0
6384,3.50,8.58,0.09,6.76,-16.83,-11.37,0
6409,3.20,8.33,-0.56,2.61,-22.75,-31.73,0
6434,3.04,8.27,-0.37,-0.44,-16.47,-51.98,0
6458,2.83,7.90,-0.51,-2.27,-11.16,-70.94,0
6483,2.31,7.50,-1.22,-8.24,-20.25,-90.27,0
6507,2.15,7.11,-1.43,-18.24,-30.86,-107.34,0
6533,2.26,6.82,-0.99,-27.15,-30.67,-125.82,0
6557,2.98,6.23,-0.62,-32.27,-30.67,-151.24,0
6582,3.04,5.09,-0.63,-39.34,-43.97,-183.87,0
6607,2.83,4.16,-0.37,-49.40,-50.67,-217.22,0
6632,3.02,3.51,0.38,-58.79,-45.31,-263.62,0
6657,2.51,1.27,0.66,-69.58,-60.31,-319.17,0
6681,0.77,-1.91,0.23,-81.84,-37.81,-375.45,0
6707,-1.08,-6.06,0.05,-90.99,-9.88,-431.61,0
6731,-2.68,-11.52,0.49,-105.07,-32.81,-491.79,0
6756,-8.53,-17.28,0.43,-133.18,-81.04,-531.30,0
6781,-16.27,-19.65,2.58,-160.68,-57.50,-508.80,0
6806,-20.60,-17.23,6.52,-166.17,-79.39,-415.45,0
6831,-20.60,-11.31,11.95,-138.49,-200.55,-247.16,0
6856,-20.60,-8.88,14.26,-85.80,-144.70,-68.44,0
6881,-20.60,-8.47,14.45,-13.06,149.38,63.20,0
6906,-20.60,-9.54,11.21,21.51,99.63,133.08,0
6931,-17.31,-8.76,8.31,35.05,174.69,159.48,0
6956,-15.28,-6.34,6.43,40.96,125.60,165.34,0
6980,-14.28,-4.63,4.68,46.82,120.79,168.57,0
7006,-13.77,-4.24,2.67,44.01,105.30,176.07,0
7031,-14.52,-3.98,1.82,31.76,139.02,194.48,0
7055,-13.44,-3.56,1.43,31.39,60.42,212.23,0
7081,-12.11,-2.66,0.36,28.10,53.53,219.00,0
7105,-11.96,-2.23,-0.49,23.04,24.26,219.42,0
7130,-11.06,-1.31,-0.43,17.18,2.43,222.90,0
7155,-10.24,-0.46,-1.09,12.30,-8.72,223.08,0
7180,-9.65,0.34,-1.24,1.33,28.71,221.31,0
7205,-8.88,1.29,-0.86,-7.39,23.53,219.67,0
7229,-7.34,2.23,-0.32,-11.72,-2.69,213.69,0
7254,-6.55,3.15,-0.15,-13.24,-2.69,202.59,0
7279,-5.78,3.97,-0.62,-16.72,3.47,191.13,0
7304,-4.78,4.95,-0.41,-20.07,-16.22,178.51,0
7328,-4.19,5.48,-0.03,-22.21,-25.37,165.46,0
7353,-4.11,6.05,-0.04,-20.44,-28.24,155.70,0
7379,-3.41,6.66,0.13,-20.74,4.69,145.22,0
7403,-2.97,7.00,0.13,-21.96,-16.77,135.09,0
7428,-3.01,6.89,-0.09,-21.90,-16.16,131.68,0
7452,-2.26,7.13,0.04,-19.22,-10.43,130.28,0
7477,-1.44,7.54,0.66,-17.70,-5.55,123.81,0
7503,-1.35,7.41,0.62,-18.67,-5.80,119.00,0
7527,-0.52,7.76,1.41,-16.48,-3.97,115.34,0
7552,-0.06,7.94,1.36,-11.17,2.01,108.14,0
7576,1.34,7.82,1.55,-8.00,-8.24,97.96,0
7601,1.89,7.91,1.42,-5.50,-8.78,84.55,0
7625,2.59,8.04,2.03,-1.05,0.18,71.07,0
7650,3.27,8.04,1.93,4.50,6.09,55.10,0
7676,3.87,7.78,1.79,7.79,6.22,37.72,0
7700,4.53,7.63,1.72,10.23,7.37,18.27,0
7725,4.80,7.87,1.73,13.10,5.30,-6.67,0
7749,5.19,8.26,1.80,17.61,-4.94,-35.82,0
7774,4.96,7.95,1.00,20.41,-11.53,-68.50,0
7799,4.24,7.10,0.41,17.61,-15.19,-94.35,0
7823,4.34,6.76,0.22,11.69,-20.98,-118.74,0
7849,4.87,6.70,0.21,7.37,-27.08,-150.27,0
7873,5.00,6.28,0.23,1.94,-39.46,-190.27,0
7898,4.44,5.07,0.36,-2.63,-52.63,-236.06,0
7922,3.93,3.10,0.09,-7.15,-48.48,-278.80,0
7947,3.57,1.49,-0.06,-12.09,-23.05,-326.24,0
7973,3.19,-1.69,0.12,-12.57,-26.83,-390.14,0
7997,0.85,-6.12,-0.70,-25.80,-82.44,-453.68,0
8022,-2.82,-11.07,-1.77,-55.93,-73.11,-504.41,0
8046,-6.27,-15.68,-0.79,-88.12,-92.02,-538.86,0
8072,-14.58,-17.71,1.47,-126.11,-144.09,-523.37,0
8096,-20.60,-16.54,4.45,-148.85,-116.95,-443.19,0
8122,-20.60,-12.28,8.85,-143.97,-183.78,-302.95,0
8147,-20.60,-9.54,13.11,-106.17,-117.08,-142.95,0
8172,-20.60,-8.77,12.89,-39.34,75.91,-15.09,0
8197,-20.60,-9.83,10.82,-3.37,90.36,64.36,0
8221,-18.11,-9.03,8.41,10.11,150.06,99.97,0
8246,-16.01,-6.34,6.80,14.50,143.23,111.56,0
8272,-14.91,-4.24,5.38,17.06,135.48,117.78,0
8296,-15.10,-3.65,3.27,16.51,57.25,128.33,0
8321,-14.49,-3.51,1.96,10.60,122.74,145.89,0
8346,-14.46,-3.40,1.79,5.78,90.54,165.28,0
8371,-13.73,-3.27,0.95,8.22,59.51,181.07,0
8395,-12.98,-3.01,0.86,7.85,21.76,191.62,0
8420,-12.17,-2.18,0.53,9.44,6.46,199.36,0
8446,-10.89,-1.45,0.08,7.79,35.97,202.90,0
8470,-10.98,-0.97,-0.45,-0.81,33.90,203.08,0
8495,-10.76,-0.19,-0.67,-8.18,5.54,206.37,0
8519,-9.65,0.79,-0.44,-11.17,21.46,209.67,0
8545,-8.51,1.63,-0.43,-14.95,19.81,205.83,0
8570,-8.10,2.25,-0.46,-19.71,6.52,200.03,0
8594,-7.03,3.11,-0.18,-19.16,-32.32,193.69,0
8619,-6.27,4.18,0.12,-14.71,-28.54,185.03,0
8643,-5.78,4.53,-0.12,-13.79,-9.52,179.00,0
8669,-5.14,4.96,-0.28,-15.56,-24.09,171.07,0
8693,-4.40,5.53,0.06,-18.79,-15.07,163.02,0
8718,-3.56,5.76,-0.02,-19.40,-27.08,156.62,0
8743,-2.99,6.40,-0.07,-20.93,-6.77,149.36,0
8768,-2.64,6.54,0.32,-22.33,-4.09,144.55,0
8793,-1.63,6.76,0.64,-25.38,-9.52,138.20,0
8817,-0.99,6.43,0.80,-27.70,1.03,134.24,0
8842,-0.86,6.80,0.80,-29.28,21.76,129.67,0
8867,-0.33,7.42,1.32,-31.29,11.15,122.72,0
8892,0.36,7.68,1.90,-29.10,-10.31,114.06,0
8917,1.26,8.13,2.51,-22.15,-0.31,102.96,0
8941,2.11,8.60,3.00,-12.09,7.80,88.20,0
8966,3.15,8.94,3.47,0.17,1.03,70.16,0
8990,4.05,8.90,3.30,11.69,-14.58,45.03,0
9015,4.33,9.01,3.11,22.43,-14.76,20.77,0
9041,4.28,8.88,2.32,31.51,-8.05,-4.78,0
9065,3.85,8.68,1.69,35.90,-5.80,-27.10,0
9090,3.73,8.58,0.99,36.51,-12.81,-47.77,0
9114,3.57,8.07,0.38,32.61,-18.42,-67.34,0
9139,3.15,7.97,0.01,25.60,-21.10,-87.53,0
9163,2.93,8.21,-0.06,20.17,-21.59,-110.76,0
9189,2.71,7.68,-0.16,14.62,-27.69,-134.60,0
9214,2.26,6.86,-0.10,9.80,-37.20,-157.65,0
9238,1.63,6.12,-0.37,4.93,-33.36,-180.02,0
9263,1.88,5.16,-0.56,-2.33,-29.70,-203.01,0
9287,3.34,4.53,0.27,-9.34,-41.22,-241.18,0
9313,3.13,2.50,0.71,-10.87,-47.87,-297.22,0
9338,2.35,-0.61,0.30,-15.99,-47.87,-351.36,0
9362,1.57,-4.01,0.06,-23.18,-62.75,-402.28,0
9387,-0.17,-8.73,-0.04,-34.59,-54.03,-461.97,0
9412,-5.42,-12.93,0.55,-42.02,-17.32,-508.98,0
9437,-13.69,-15.46,-0.15,-53.37,-6.65,-505.94,0
9461,-20.60,-14.48,1.46,-73.55,-87.99,-428.56,0
9487,-20.60,-9.68,3.34,-91.29,-142.50,-263.99,0
9512,-20.60,-7.02,6.82,-76.78,-96.34,-86.73,0
9536,-20.60,-6.37,7.28,-44.22,148.41,30.95,0
9562,-20.60,-6.84,6.22,-25.01,48.96,77.78,0
9586,-17.12,-5.90,5.57,-13.67,122.01,85.70,0
9611,-16.56,-3.69,4.44,-8.24,105.30,83.02,0
9636,-15.49,-2.47,3.15,-0.26,34.45,90.03,0
9661,-15.06,-1.96,1.68,1.09,81.46,106.50,0
9686,-14.94,-1.98,1.52,-1.11,78.90,124.97,0
9710,-14.87,-1.66,1.39,9.13,20.06,143.39,0
9735,-14.18,-1.85,0.53,12.91,16.21,157.11,0
9759,-13.71,-1.57,-0.07,11.45,6.03,167.29,0
9785,-12.92,-1.06,-0.30,8.71,18.84,177.72,0
9810,-12.48,-0.54,-0.42,4.74,12.56,184.67,0
9834,-11.38,0.24,-0.39,3.28,2.74,188.75,0
9859,-10.21,1.02,-0.24,1.57,4.20,189.61,0
9884,-9.63,1.75,-0.10,1.21,16.58,185.95,0
9909,-9.00,2.40,-0.30,-0.26,6.64,182.35,0
9934,-7.92,3.21,-0.35,0.66,-41.22,177.59,0
9958,-7.23,4.17,0.05,4.13,-29.82,168.87,0
9983,-7.12,4.91,-0.35,7.67,-24.52,159.24,0
10007,-6.53,5.20,-1.00,5.54,-27.99,156.25,0
10033,-5.93,5.55,-0.86,2.37,-31.65,153.14,0
10057,-4.64,6.24,-0.52,-0.26,-26.53,145.28,0
10082,-3.73,6.57,-0.67,-3.55,-29.58,131.56,0
10107,-3.52,6.42,-0.43,-10.56,-27.99,121.80,0
10132,-2.82,6.61,-0.33,-9.10,-48.85,112.78,0
10157,-2.55,7.19,0.14,-18.43,-47.81,104.49,0
10181,-2.83,7.21,0.66,-16.78,-14.33,99.79,0
10207,-2.08,7.12,0.70,-15.50,-29.27,101.62,0
10232,-1.23,7.53,0.97,-12.02,-28.36,98.20,0
10256,-0.78,7.73,1.15,-7.57,-9.03,92.78,0
10281,-0.26,7.86,1.48,-2.57,-12.81,85.52,0
10305,0.14,7.77,1.39,2.55,-13.60,80.16,0
10331,0.71,7.62,1.32,7.12,-3.36,74.97,0
10355,1.96,7.90,1.37,11.15,-1.04,65.46,0
10380,2.74,8.23,1.67,15.29,-3.48,45.10,0
10405,3.13,8.71,1.92,21.63,2.86,20.77,0
10429,3.49,8.51,1.30,25.96,-8.36,-3.20,0
10454,3.72,8.15,0.49,25.72,-20.07,-28.38,0
10479,3.41,7.44,-0.55,19.68,-15.98,-50.21,0
10504,3.90,7.18,-0.85,9.74,-16.35,-72.22,0
10528,4.34,6.66,-1.41,-3.73,-38.78,-100.33,0
10553,4.07,5.95,-1.52,-18.30,-35.61,-132.89,0
10579,4.08,5.54,-0.74,-28.61,-27.32,-165.57,0
10603,4.27,4.53,-0.78,-35.56,-35.43,-204.48,0
10628,3.20,2.52,-0.84,-44.83,-34.33,-244.05,0
10653,2.65,1.21,-0.11,-51.90,-27.63,-282.40,0
10678,3.08,-0.69,0.66,-54.34,-43.11,-335.82,0
10703,1.52,-3.87,0.73,-57.39,-45.98,-393.74,0
10727,-1.92,-7.70,-0.24,-63.55,-14.09,-452.28,0
10753,-5.60,-13.59,-0.42,-76.96,-1.59,-502.58,0
10777,-12.28,-17.08,0.85,-90.62,-12.69,-527.70,0
10802,-19.91,-16.15,0.28,-95.19,34.26,-492.22,0
10827,-20.60,-18.58,2.69,-119.34,-121.41,-399.47,0
10852,-20.60,-13.01,7.96,-136.35,-243.36,-213.19,0
10878,-20.60,-10.11,14.22,-95.32,-85.13,-19.48,0
10902,-20.60,-8.92,14.99,-19.28,126.70,101.50,0
10928,-20.60,-8.12,11.82,28.16,33.04,150.58,0
10952,-17.61,-6.71,7.93,54.62,150.91,167.47,0
10977,-15.71,-5.56,4.51,51.69,133.23,178.33,0
11003,-14.74,-4.57,1.59,40.90,133.47,188.57,0
11027,-14.21,-3.84,0.30,24.56,95.97,197.53,0
11053,-13.29,-3.11,0.12,19.07,57.86,207.84,0
11077,-12.84,-2.77,-0.13,10.17,23.23,217.78,0
11102,-12.22,-2.32,-0.71,2.85,10.73,225.34,0
11127,-10.99,-1.41,-0.52,0.29,-0.31,228.57,0
11152,-9.99,-0.65,-0.95,-5.13,0.85,225.83,0
11177,-9.75,0.40,-0.91,-12.45,5.06,222.11,0
11201,-8.87,1.15,-0.49,-16.35,-7.20,221.44,0
11226,-7.64,1.75,-0.23,-17.27,-3.54,219.54,0
11251,-6.19,2.77,0.09,-18.12,-10.37,211.56,0
11276,-5.39,3.84,0.31,-15.26,-2.99,195.03,0
11301,-4.70,4.22,0.66,-14.22,-13.66,179.00,0
11325,-4.41,4.47,-0.56,-18.73,-20.37,168.94,0
11351,-3.79,5.17,-0.35,-23.91,-28.30,162.11,0
11375,-2.48,5.74,0.20,-26.54,-22.69,154.48,0
11400,-1.91,6.20,0.06,-30.62,-19.27,140.77,0
11426,-1.08,6.62,0.32,-36.72,-35.43,129.79,0
11450,-0.41,7.28,0.67,-38.06,-31.53,118.27,0
11475,-0.40,7.26,1.80,-36.84,-12.75,106.31,0
11499,0.29,7.46,2.00,-34.65,18.96,96.74,0
11525,1.08,7.66,3.62,-30.99,-42.56,82.41,0
11549,0.64,7.82,2.64,-24.34,12.50,68.45,0
11574,0.47,7.99,3.08,-14.71,10.54,59.55,0
11599,0.61,8.49,3.16,-5.01,7.19,50.22,0
11624,0.57,8.67,2.96,1.69,-2.08,39.79,0
11649,0.18,8.89,2.77,8.28,9.02,32.35,0
11673,-0.32,8.74,1.90,9.99,13.72,28.88,0
11698,0.35,8.87,2.22,8.52,13.72,27.47,0
11722,1.05,9.44,2.63,10.72,15.18,19.00,0
11747,1.95,8.91,2.56,12.79,9.08,6.99,0
11772,2.60,8.71,2.55,12.98,-5.98,-8.07,0
11797,3.27,8.63,2.77,17.24,0.91,-25.57,0
11822,4.36,7.95,2.45,22.55,1.95,-48.62,0
11846,4.78,7.05,1.82,21.76,-4.27,-78.81,0
11871,4.73,6.95,1.74,19.74,-15.37,-110.76,0
11896,3.59,6.95,1.72,22.61,-14.03,-145.82,0
11921,2.68,6.60,1.39,25.11,-16.83,-177.71,0
11946,2.17,5.40,0.65,22.61,-37.69,-208.07,0
11970,1.89,3.67,0.19,12.73,-53.85,-236.30,0
11996,2.16,2.92,-0.01,1.21,-53.48,-273.07,0
12020,2.52,1.07,0.42,-7.76,-45.00,-328.99,0
12045,1.84,-2.35,0.78,-16.78,-65.19,-394.41,0
12070,0.21,-7.20,0.03,-36.35,-104.58,-463.62,0
12095,-4.98,-13.64,-1.91,-81.78,-121.28,-517.89,0
12120,-9.42,-18.00,-0.20,-130.07,-161.04,-533.50,0
12144,-15.94,-19.65,2.26,-190.07,-144.09,-496.36,0
12170,-20.60,-16.97,8.54,-218.36,-157.01,-394.90,0
12195,-20.60,-12.78,14.69,-185.32,-206.95,-242.34,0
12220,-20.60,-8.12,18.68,-108.43,-95.06,-83.44,0
12245,-20.60,-9.38,17.92,-9.89,74.63,31.19,0
12270,-19.35,-9.80,12.25,34.26,135.18,99.85,0
12295,-15.82,-8.60,9.69,53.16,102.01,135.40,0
12319,-13.89,-6.38,7.32,54.32,176.76,153.27,0
12345,-13.66,-4.86,4.88,43.95,157.98,165.58,0
12370,-13.39,-4.35,3.79,34.93,160.30,177.23,0
12395,-13.93,-4.40,2.34,27.61,59.93,190.64,0
12420,-13.56,-3.88,3.44,19.62,113.65,206.01,0
12444,-12.89,-3.05,3.08,19.44,89.08,214.54,0
12470,-12.49,-2.68,1.76,20.72,57.25,219.36,0
12495,-12.29,-1.98,1.21,17.98,30.91,222.65,0
12519,-11.42,-1.11,0.84,15.54,25.42,227.72,0
12545,-9.87,0.10,1.06,15.96,2.68,227.11,0
12569,-9.29,0.83,0.30,15.90,1.34,220.83,0
12594,-8.80,1.37,0.27,10.29,19.57,218.08,0
12618,-8.27,2.15,-0.11,5.48,2.68,213.57,0
12644,-7.20,2.87,-0.13,-1.11,-13.42,210.89,0
12669,-6.35,3.84,0.47,-2.88,-11.28,204.61,0
12693,-5.07,4.77,0.90,-1.17,-11.47,196.50,0
12718,-4.47,5.20,0.35,-0.62,-21.35,184.30,0
12743,-4.05,5.35,0.10,-5.20,-9.46,176.25,0
12768,-3.16,6.03,0.02,-10.56,1.52,170.16,0
12793,-2.52,6.36,0.41,-15.38,-13.36,162.59,0
12817,-1.46,6.74,0.73,-18.18,-10.00,154.61,0
12843,-0.53,7.17,0.65,-18.18,-13.97,144.18,0
12867,0.40,7.19,0.92,-18.37,-16.77,132.84,0
12892,1.28,7.20,1.03,-19.83,-16.53,121.44,0
12916,2.12,7.53,1.33,-20.01,-0.98,106.13,0
12942,2.82,7.77,0.68,-21.05,18.29,86.62,0
12967,3.47,7.92,1.69,-18.06,-1.22,67.29,0
12991,4.02,7.93,1.92,-15.07,-6.04,47.84,0
13016,3.98,8.39,2.00,-10.62,-0.74,25.52,0
13040,3.75,8.56,2.15,-4.83,13.78,4.00,0
13065,3.38,8.72,2.30,0.35,9.45,-14.29,0
13091,2.82,8.76,2.05,3.95,4.69,-29.36,0
13115,2.36,8.54,1.79,6.15,7.80,-40.70,0
13140,1.98,8.44,1.73,5.96,8.65,-51.79,0
13164,1.94,8.53,1.93,6.39,7.80,-63.32,0
13189,1.74,8.31,1.75,7.55,1.64,-77.46,0
13213,2.16,7.73,1.33,5.05,-4.03,-92.34,0
13238,3.37,7.31,2.35,3.83,-16.28,-113.62,0
13264,3.80,7.28,3.07,9.13,-31.04,-147.16,0
13288,3.47,6.64,3.17,21.02,-15.13,-186.00,0
13313,3.27,5.20,2.60,28.71,-26.59,-227.22,0
13337,3.35,3.54,2.69,34.80,-12.32,-272.04,0
13363,3.44,1.15,2.41,49.56,0.42,-329.17,0
13387,2.33,-2.46,1.06,60.72,-2.02,-391.67,0
13412,0.86,-6.98,-0.96,51.76,-52.26,-453.50,0
13437,-3.87,-11.73,-3.67,16.39,-55.25,-507.16,0
13462,-9.70,-16.46,-2.57,-35.93,-122.99,-522.76,0
13487,-17.54,-15.70,-0.47,-100.19,-135.80,-486.36,0
13512,-20.60,-12.50,5.22,-116.96,-149.27,-383.68,0
13537,-20.60,-7.10,8.88,-95.68,-182.50,-232.46,0
13563,-20.60,-6.70,9.90,-56.54,-4.58,-90.70,0
13587,-20.60,-9.18,7.68,-17.82,171.95,11.62,0
13612,-20.60,-10.26,5.81,-18.00,83.71,64.61,0
13637,-18.87,-7.48,7.44,-12.15,125.67,83.63,0
13662,-18.16,-4.12,6.50,3.40,101.34,96.80,0
13687,-17.95,-3.15,4.88,16.02,110.60,124.18,0
13712,-16.86,-3.43,2.15,16.88,49.63,156.56,0
13737,-15.44,-3.50,1.50,14.26,39.63,183.45,0
13761,-14.43,-3.21,1.45,9.62,26.64,203.33,0
13787,-13.50,-2.74,0.94,10.23,14.02,214.36,0
13811,-12.73,-2.37,-0.23,9.56,6.82,220.70,0
13836,-11.35,-1.74,-0.38,2.18,26.03,221.74,0
13861,-11.12,-0.76,-0.52,-7.39,34.02,220.22,0
13886,-10.49,-0.10,-0.55,-11.84,10.79,221.62,0
13911,-9.30,0.68,-0.86,-17.51,28.41,222.53,0
13935,-8.37,1.67,-0.52,-21.78,24.87,220.64,0
13961,-7.35,2.18,-0.75,-27.15,18.11,217.96,0
13986,-6.37,3.19,-0.32,-30.44,2.25,210.40,0
14010,-5.17,4.03,0.52,-30.01,-12.50,200.76,0
14035,-4.34,4.67,0.29,-30.26,5.54,190.95,0
14060,-4.14,5.48,-0.25,-30.93,3.65,179.30,0
14085,-3.58,5.88,0.17,-34.83,3.90,172.53,0
14109,-2.41,5.95,0.42,-36.48,1.82,166.62,0
14134,-1.64,6.38,0.99,-36.23,-20.25,161.56,0
14160,-1.65,6.80,1.45,-36.35,4.08,158.33,0
14184,-1.41,7.12,1.93,-33.18,11.95,154.42,0
14209,-0.15,7.32,1.96,-28.43,-0.92,149.73,0
14233,0.99,7.53,2.57,-24.10,-0.25,140.46,0
14259,2.00,7.57,2.53,-19.71,-3.30,126.07,0
14283,2.80,7.75,2.58,-17.15,-5.92,106.68,0
14308,3.25,7.85,2.94,-13.30,-6.71,87.78,0
14333,3.80,7.77,2.75,-9.52,-4.27,70.77,0
14357,4.29,7.67,2.58,-7.45,-4.76,51.50,0
14383,4.41,7.68,2.34,-6.05,-1.35,31.44,0
14407,4.65,7.82,2.20,-5.81,-11.96,13.27,0
14432,4.31,7.78,2.06,-5.87,-0.80,-3.56,0
14457,4.25,7.95,2.19,-5.81,-15.80,-18.81,0
14481,4.17,8.58,2.51,-2.88,8.04,-34.96,0
14506,3.80,8.46,2.57,-0.99,5.73,-51.79,0
14530,3.47,8.18,2.50,2.30,1.76,-66.61,0
14556,3.40,7.63,2.26,4.19,-2.57,-79.23,0
14580,3.59,7.39,1.96,3.40,-1.10,-92.28,0
14605,3.81,7.38,1.97,1.39,-5.37,-111.12,0
14630,4.05,7.06,2.45,1.09,-8.36,-135.63,0
14654,3.79,6.62,2.38,5.11,-10.25,-164.54,0
14679,3.45,5.69,2.02,7.55,-10.31,-193.62,0
14704,3.39,4.82,2.01,9.44,-18.36,-227.10,0
14729,3.93,3.13,1.80,12.18,-40.55,-267.65,0
14754,4.07,0.32,0.74,9.68,-54.70,-314.23,0
14778,3.74,-2.77,-0.17,1.94,-34.52,-361.06,0
14804,2.72,-5.37,0.32,-4.65,-43.36,-420.81,0
14828,-1.71,-10.52,0.62,-12.94,-46.47,-488.56,0
14853,-10.76,-14.31,0.19,-34.46,-25.49,-513.13,0
14878,-20.60,-13.94,-0.32,-47.09,61.40,-459.41,0
14903,-20.60,-11.66,-1.55,-60.01,40.06,-296.36,0
14929,-20.60,-6.46,3.56,-55.93,110.54,-88.32,0
14953,-20.60,-3.51,5.94,-31.11,133.90,45.34,0
14978,-20.60,-2.71,6.32,-1.29,57.43,96.38,0
15003,-17.41,-1.12,6.07,25.23,179.93,91.86,0
15028,-14.92,-0.37,3.10,26.94,124.26,69.12,0
15053,-13.72,0.51,1.32,22.85,39.81,51.56,0
15078,-13.75,2.41,0.02,29.50,-44.33,49.55,0
15103,-14.34,1.56,-0.17,28.95,-47.56,56.07,0
15127,-15.05,0.95,-0.58,29.50,-49.58,67.35,0
15152,-15.33,0.79,-1.03,27.67,-49.03,86.13,0
15177,-14.95,0.51,-1.24,21.63,-22.69,108.20,0
15202,-14.07,0.55,-1.15,13.77,-5.98,127.47,0
15227,-13.55,0.78,-0.70,10.11,-1.59,142.53,0
15252,-13.07,1.29,-0.58,11.15,12.31,155.95,0
15277,-11.79,1.64,-0.66,10.90,14.63,168.69,0
15301,-11.22,1.84,-1.02,8.77,15.42,177.47,0
15326,-9.94,2.32,-1.01,3.22,14.02,185.95,0
15352,-8.99,3.03,-1.12,-1.17,5.85,185.34,0
15376,-7.99,3.59,-0.77,-4.04,-6.53,185.22,0
15401,-7.26,3.99,-0.99,-8.12,3.59,187.17,0
15425,-6.00,4.23,-0.48,-12.70,6.95,190.76,0
15450,-4.80,4.78,-0.41,-13.18,-9.09,185.95,0
15475,-3.59,5.57,-0.55,-13.12,-15.19,173.45,0
15500,-3.46,5.68,-0.11,-10.68,-29.39,159.91,0
15525,-3.45,6.44,-0.38,-17.45,18.65,155.83,0
15550,-2.33,6.69,-0.29,-19.40,3.04,151.01,0
15575,-1.67,7.07,0.07,-19.77,-3.24,143.87,0
15599,-1.21,6.91,-0.01,-19.77,0.73,142.23,0
15624,-0.48,7.29,0.02,-22.15,0.06,138.81,0
15650,0.42,8.13,0.07,-23.91,7.80,129.48,0
15674,0.79,7.71,0.24,-27.51,10.48,118.63,0
15699,1.28,7.53,0.17,-28.79,25.48,110.52,0
15723,2.38,7.41,0.67,-31.84,15.61,100.70,0
15749,2.74,7.93,1.03,-31.90,7.56,85.95,0
15773,3.31,7.68,1.62,-29.71,1.09,76.19,0
15798,4.05,7.45,1.93,-24.95,-6.53,64.97,0
15823,5.21,7.91,2.67,-17.57,-14.52,46.80,0
15847,6.07,8.67,3.05,-5.01,-11.96,18.69,0
15873,5.95,8.63,2.71,9.01,-6.65,-13.26,0
15897,5.49,7.99,2.15,14.38,-13.78,-37.59,0
15922,4.93,7.62,1.34,17.43,-17.75,-58.75,0
15946,4.49,7.44,0.77,17.91,-12.38,-76.73,0
15971,4.23,7.47,0.17,14.07,-12.81,-94.90,0
15997,3.75,7.22,-0.41,6.51,-14.27,-113.62,0
16021,3.28,6.73,-0.45,-1.23,-10.00,-129.42,0
16046,3.96,6.22,0.13,-7.88,-15.07,-145.82,0
16070,5.17,6.04,0.44,-9.52,-17.50,-178.62,0
16096,5.35,4.55,0.99,-9.77,-34.46,-221.37,0
16121,4.98,3.19,0.86,-5.13,7.31,-266.61,0
16145,4.90,0.77,0.71,2.98,-18.24,-320.94,0
16170,4.38,-1.73,0.41,1.09,-43.91,-380.14,0
16195,3.81,-5.67,0.28,-4.59,-36.47,-449.35,0
16220,0.50,-11.76,-0.58,-20.80,-80.00,-529.11,0
16244,-6.97,-18.21,-1.61,-63.73,-148.17,-574.59,0
16270,-17.71,-19.65,-1.30,-110.93,-20.55,-551.30,0
16295,-20.60,-17.24,2.57,-118.97,-17.87,-449.78,0
16319,-20.60,-10.48,6.40,-112.82,-169.88,-268.99,0
16345,-20.60,-8.75,8.38,-94.34,-110.13,-68.38,0
16369,-20.60,-9.70,12.49,-49.16,263.71,69.30,0
16395,-20.60,-9.07,8.46,-24.28,100.42,111.98,0
16420,-17.65,-5.60,7.90,-5.01,44.93,102.41,0
16444,-16.69,-2.68,6.18,16.88,116.82,97.05,0
16470,-16.92,-2.21,3.64,24.56,59.51,113.63,0
16494,-16.56,-2.61,0.94,22.67,57.74,139.12,0
16519,-15.16,-1.95,0.73,21.45,2.43,157.84,0
16544,-14.42,-1.65,0.43,22.79,-26.10,172.05,0
16569,-13.57,-1.31,0.46,25.41,-0.43,188.39,0
16594,-12.78,-1.56,0.19,25.66,2.01,199.91,0
16619,-11.92,-0.92,-0.00,26.33,-9.64,206.92,0
16644,-11.30,-0.43,-0.26,25.05,14.75,214.54,0
16668,-10.18,0.41,-0.20,21.57,40.30,220.64,0
16693,-8.95,0.84,-0.30,18.71,17.86,221.37,0
16719,-8.04,1.63,-0.82,12.85,15.00,218.69,0
16743,-7.18,2.44,-0.71,6.63,8.41,216.19,0
16768,-6.01,3.53,-0.85,3.65,-9.03,208.75,0
16792,-4.89,4.53,-1.03,1.63,-8.17,195.28,0
16818,-3.91,5.28,-0.58,-2.57,-6.53,181.68,0
16842,-3.02,5.81,-0.33,-5.81,-5.92,169.79,0
16867,-2.55,6.26,-0.28,-6.60,-20.74,156.86,0
16892,-2.34,6.61,-0.69,-8.79,19.75,148.14,0
16916,-1.43,7.17,-0.54,-12.94,1.52,136.13,0
16942,-1.36,7.42,-0.47,-16.96,-10.67,124.48,0
16966,-1.43,7.69,-0.23,-19.89,-19.64,117.41,0
16991,-1.13,8.10,-0.29,-21.96,-1.04,113.27,0
17017,-0.63,8.12,-0.28,-24.10,-9.82,108.88,0
17041,-0.50,8.18,0.16,-25.50,-2.87,106.92,0
17066,-0.42,8.41,0.27,-25.62,17.80,106.31,0
17090,0.20,8.36,0.34,-26.72,10.67,103.81,0
17116,0.88,7.65,1.28,-30.87,8.84,104.42,0
17140,1.66,7.36,1.45,-29.71,27.31,104.67,0
17165,2.31,7.72,1.61,-25.50,50.06,99.97,0
17190,3.04,7.79,2.57,-20.68,48.59,90.34,0
17215,3.92,7.82,2.98,-15.44,20.91,79.85,0
17240,4.89,7.95,2.66,-8.12,21.89,63.33,0
17264,5.78,7.90,2.91,-2.09,19.39,42.90,0
17289,6.64,8.47,2.67,5.96,10.06,18.39,0
17314,6.65,8.16,1.94,10.17,-3.54,-11.67,0
17338,5.88,8.11,2.10,12.55,-14.27,-36.06,0
17364,5.47,7.94,1.94,16.51,-20.00,-55.88,0
17388,5.36,7.32,1.38,17.55,-14.39,-74.60,0
17413,5.77,7.02,0.94,14.68,-19.39,-93.50,0
17437,6.03,7.01,0.66,11.02,-26.16,-121.92,0
17463,5.74,6.39,0.76,6.94,-28.05,-150.76,0
17488,5.59,5.91,0.99,3.95,-37.93,-179.72,0
17512,5.86,5.20,1.38,3.59,-51.96,-215.88,0
17537,5.81,4.11,1.39,4.62,-58.91,-260.51,0
17562,5.99,2.41,0.91,4.99,-48.66,-311.30,0
17587,5.92,-0.18,0.25,-0.62,-52.93,-375.27,0
17611,4.65,-4.33,0.17,-8.61,-65.61,-448.50,0
17636,1.74,-10.12,-1.10,-28.24,-103.97,-516.73,0
17662,-2.91,-15.51,-2.16,-72.08,-113.36,-557.09,0
17686,-9.38,-19.65,-1.25,-129.77,-176.04,-561.24,0
17712,-18.72,-19.54,0.94,-179.22,-118.97,-509.72,0
17736,-20.60,-15.40,5.71,-194.95,-123.17,-382.28,0
17762,-20.60,-10.69,9.79,-172.75,-135.80,-219.60,0
17787,-20.60,-8.07,13.05,-111.60,11.89,-70.64,0
17812,-20.60,-9.53,12.45,-47.39,246.70,18.21,0
17837,-19.73,-9.97,8.70,-25.62,85.12,47.05,0
17861,-17.88,-8.68,8.14,-15.56,74.02,52.05,0
17887,-18.15,-6.12,7.35,-5.13,85.12,59.85,0
17912,-17.89,-4.56,6.37,13.52,17.19,83.14,0
17936,-17.88,-4.30,4.99,24.50,95.91,117.78,0
17961,-17.07,-4.18,4.48,33.65,46.46,151.62,0
17986,-15.85,-3.82,3.09,45.11,23.47,177.90,0
18011,-15.25,-4.08,2.35,51.76,18.47,198.69,0
18035,-14.70,-3.87,1.41,52.06,10.12,217.72,0
18061,-13.73,-3.40,0.83,48.22,16.40,235.03,0
18086,-12.50,-2.59,0.74,45.05,32.74,247.47,0
18110,-11.51,-1.78,0.40,39.56,39.08,253.33,0
18136,-10.67,-0.94,-0.02,31.57,48.90,258.14,0
18160,-8.95,0.08,-0.04,24.74,25.30,258.75,0
18185,-7.70,1.27,-0.44,19.68,32.80,254.00,0
18211,-7.11,2.13,-0.69,15.05,24.81,244.06,0
18235,-5.41,3.09,-0.36,10.05,10.48,236.80,0
18260,-3.59,3.81,-0.29,5.23,2.62,223.57,0
18284,-3.03,4.65,-1.01,2.98,3.35,206.37,0
18310,-2.59,5.42,-0.75,-4.10,33.78,190.95,0
18334,-2.31,6.06,-0.63,-9.28,-2.32,179.30,0
18359,-1.82,6.10,-0.36,-11.05,-3.78,172.53,0
18384,-0.73,6.44,-0.09,-11.96,13.53,166.56,0
18408,0.12,6.75,0.32,-14.52,4.69,157.17,0
18434,0.63,7.00,0.36,-14.22,4.81,145.40,0
18458,1.32,6.83,0.16,-16.11,2.37,137.41,0
18483,2.34,7.13,0.34,-17.09,9.20,126.68,0
18507,2.68,7.39,0.79,-16.66,-7.08,114.24,0
18533,2.78,7.74,1.34,-16.66,45.00,103.75,0
18558,3.87,8.00,1.30,-14.40,55.12,91.86,0
18582,4.04,8.09,1.49,-11.48,33.17,78.51,0
18607,4.60,8.54,1.80,-6.05,17.86,64.18,0
18631,5.00,8.80,1.50,-1.11,11.22,45.71,0
18657,4.83,8.71,1.16,2.37,2.98,28.27,0
18682,4.73,8.38,0.87,2.24,0.67,15.64,0
18706,5.00,8.11,0.68,0.66,-7.38,2.78,0
18731,4.98,8.22,0.62,-1.90,-4.88,-10.51,0
18755,5.16,8.32,0.64,-4.77,-9.09,-25.70,0
18780,5.19,8.24,1.11,-4.95,-13.36,-42.46,0
18804,5.53,7.80,1.59,-2.76,-22.69,-60.09,0
18830,6.10,7.55,1.65,0.17,-28.11,-82.34,0
18855,6.52,6.96,1.90,2.61,-39.70,-110.27,0
18879,6.40,6.61,2.20,6.45,-52.56,-142.28,0
18904,5.99,6.70,2.49,14.32,-65.43,-177.83,0
18929,5.29,5.69,1.69,21.15,-76.16,-214.96,0
18954,4.27,4.10,0.43,20.17,-65.19,-247.52,0
18979,3.52,2.39,-0.17,14.13,-56.53,-279.11,0
19003,3.29,0.93,-0.49,3.77,-78.17,-313.01,0
19029,1.95,-1.11,-2.04,-19.59,-111.95,-348.56,0
19053,1.58,-3.45,-2.44,-46.90,-53.91,-382.71,0
19078,2.51,-6.79,-1.47,-70.68,-97.50,-432.09,0
19103,-0.33,-11.40,-0.14,-91.35,-74.52,-494.11,0
19128,-5.87,-17.20,-2.26,-126.41,-96.28,-527.34,0
19153,-12.75,-19.65,-1.52,-187.57,-145.73,-511.24,0
19178,-20.60,-19.65,2.59,-239.22,-163.91,-429.47,0
19203,-20.60,-16.69,8.96,-238.36,-149.52,-302.16,0
19228,-20.60,-13.56,12.85,-190.19,-80.49,-168.50,0
19253,-20.60,-9.88,15.85,-114.34,52.43,-67.53,0
19279,-20.60,-8.91,12.89,-45.93,108.17,0.40,0
19303,-19.92,-8.79,8.89,-12.88,128.84,51.38,0
19329,-17.08,-8.27,6.63,-0.01,113.65,89.06,0
19353,-14.58,-7.79,5.42,-2.57,86.76,102.90,0
19378,-13.68,-5.97,5.16,1.94,99.93,104.91,0
19402,-13.74,-4.31,5.25,19.93,55.73,108.69,0
19428,-14.00,-4.70,3.87,36.27,25.61,118.75,0
19453,-14.70,-4.64,2.58,40.60,-2.20,132.41,0
19477,-14.78,-3.96,2.92,48.46,-13.97,151.25,0
19503,-14.44,-3.72,2.63,59.32,-6.96,165.95,0
19527,-14.12,-3.28,2.28,64.62,4.81,177.17,0
19552,-14.22,-2.96,1.62,66.63,14.51,191.01,0
19578,-14.04,-2.55,1.08,66.45,32.68,208.45,0
19602,-13.09,-2.21,0.78,62.49,37.74,225.03,0
19627,-11.81,-1.31,0.66,59.44,29.63,234.24,0
19652,-11.22,-0.60,0.27,55.11,26.58,239.48,0
19677,-10.45,0.15,-0.45,49.68,26.89,244.97,0
19701,-8.84,0.92,-0.85,41.27,19.63,246.31,0
19727,-7.16,1.96,-0.74,31.21,12.13,239.79,0
19752,-6.82,3.16,-0.41,23.16,20.79,227.53,0
19776,-5.22,4.07,-0.16,18.77,31.52,217.65,0
19801,-3.90,4.82,-0.77,14.50,6.34,202.84,0
19826,-3.29,5.45,-1.22,7.49,6.34,187.11,0
19851,-3.03,6.14,-0.88,0.72,8.23,174.67,0
19876,-2.17,6.36,-1.08,-5.26,-2.69,165.28,0
19900,-1.99,6.23,-1.34,-12.02,-4.09,159.73,0
19925,-0.87,6.66,-0.65,-17.57,-1.47,155.03,0
19950,0.08,6.93,-0.43,-19.89,-10.31,142.59,0
19975,0.44,7.03,0.14,-16.84,-9.76,130.89,0
19999,0.94,6.91,-0.39,-24.71,15.36,123.69,0
20024,0.95,7.27,-0.79,-27.51,18.84,115.83,0
20050,0.86,7.29,-0.41,-33.43,15.42,109.91,0
20074,0.77,7.41,0.28,-35.87,14.32,109.30,0
20099,1.68,7.33,0.67,-36.35,23.23,110.16,0
20124,3.10,7.78,1.55,-34.22,26.03,102.96,0
20149,3.81,8.38,2.41,-27.02,19.69,90.46,0
20174,4.60,8.21,2.70,-16.96,13.29,77.78,0
20198,5.61,7.59,2.69,-5.50,10.12,62.72,0
20223,6.42,7.44,2.53,5.05,7.68,43.27,0
20248,7.14,7.49,2.20,11.09,-2.08,20.10,0
20273,7.81,7.76,2.05,15.48,-4.94,-8.62,0
20297,7.86,7.48,1.71,18.58,-11.65,-42.53,0
20322,7.22,7.12,0.73,18.58,-12.69,-73.62,0
20347,6.68,6.46,-0.23,11.69,-16.89,-99.60,0
20372,6.91,6.05,-0.07,-0.44,-25.74,-123.81,0
20397,7.64,6.00,1.22,-6.23,-38.72,-157.71,0
20421,6.66,5.42,0.81,-2.09,-28.66,-196.55,0
20446,5.98,4.26,0.25,-5.62,-37.26,-227.95,0
20472,6.20,3.58,0.49,-13.91,-52.93,-264.35,0
20496,5.72,2.33,0.99,-17.39,-51.59,-309.78,0
20521,4.37,0.33,0.93,-13.91,-34.64,-356.30,0
20546,4.77,-2.33,0.60,-10.44,-29.52,-407.16,0
20571,3.96,-7.01,-0.25,-21.66,-91.41,-476.30,0
20595,0.02,-13.09,-0.51,-53.98,-146.95,-538.74,0
20621,-8.23,-18.36,-0.91,-115.86,-177.56,-560.94,0
20646,-19.04,-18.70,2.65,-153.49,-57.69,-509.35,0
20670,-20.60,-14.78,4.67,-144.77,-31.47,-387.28,0
20696,-20.60,-11.04,7.20,-131.54,-84.39,-226.43,0
20720,-20.60,-9.33,8.45,-106.96,-3.78,-84.29,0
20746,-20.60,-7.27,9.42,-74.77,163.96,-4.66,0
20771,-16.55,-6.04,8.03,-47.27,76.52,17.66,0
20795,-14.06,-5.61,6.57,-32.94,41.89,7.47,0
20820,-13.49,-5.27,5.85,-26.48,67.92,-3.01,0
20845,-14.21,-4.13,4.89,-21.54,36.89,-5.21,0
20870,-14.82,-3.27,5.14,-11.72,29.02,3.82,0
20894,-15.23,-2.99,5.38,7.24,1.22,20.89,0
20919,-15.67,-3.46,4.35,18.89,2.07,42.60,0
20945,-16.31,-3.82,3.37,26.69,-5.86,64.18,0
20969,-16.43,-3.94,3.04,29.44,-6.89,91.68,0
20994,-16.05,-3.71,3.07,34.07,-13.54,121.86,0
21018,-15.41,-3.53,3.37,40.41,10.36,148.69,0
21044,-14.91,-3.36,3.22,46.63,37.98,174.55,0
21069,-14.43,-3.08,2.38,49.07,58.29,197.17,0
21093,-13.76,-2.91,1.91,45.90,54.87,220.03,0
21119,-12.79,-2.26,1.12,43.10,51.46,241.13,0
21143,-11.19,-1.79,0.85,38.52,56.28,255.15,0
21169,-9.32,-0.61,0.14,33.22,38.96,251.62,0
21193,-8.28,0.39,0.42,27.18,9.57,241.07,0
21218,-7.82,1.55,-0.47,22.79,4.69,233.63,0
21243,-7.12,2.34,-0.88,14.93,7.37,228.87,0
21267,-6.11,3.04,-0.86,6.88,16.15,225.95,0
21293,-4.67,4.04,-0.63,2.00,4.08,219.91,0
21317,-3.48,4.64,-0.48,-0.20,-7.50,207.05,0
21342,-2.65,5.17,0.51,-4.40,4.14,194.30,0
21367,-1.52,5.51,0.12,-6.90,-9.58,181.56,0
21391,-0.82,6.47,-0.07,-9.89,-14.21,165.58,0
21417,-0.83,6.48,-0.34,-12.21,-6.53,152.96,0
21441,-0.14,6.49,-0.01,-17.27,-9.88,146.13,0
21466,0.56,6.80,-0.17,-21.29,-47.20,135.95,0
21490,0.91,7.50,0.10,-22.21,-17.87,126.13,0
21516,2.17,7.60,1.72,-20.74,-2.02,114.91,0
21541,2.49,7.75,0.96,-22.45,31.46,102.41,0
21565,3.11,7.78,1.25,-18.43,20.36,85.16,0
21590,3.83,7.90,1.79,-15.50,28.78,70.10,0
21615,4.65,8.11,1.64,-10.56,22.19,50.28,0
21640,5.08,8.00,1.85,-7.63,2.86,27.84,0
21664,5.36,8.22,2.33,-2.94,-7.63,5.03,0
21689,5.49,8.89,2.14,6.33,-7.08,-21.00,0
21714,5.09,8.47,1.60,11.57,-4.76,-46.43,0
21738,4.80,8.13,1.44,14.32,-20.86,-69.54,0
21764,4.87,7.71,1.14,14.93,-31.59,-92.53,0
21788,3.97,6.97,-0.14,13.83,-18.54,-114.54,0
21813,4.31,6.18,-0.75,0.90,-25.31,-135.51,0
21838,5.13,5.73,0.03,-12.33,-36.96,-163.38,0
21863,6.35,5.06,1.61,-14.77,-43.42,-201.37,0
21888,6.77,3.48,1.66,-7.21,-43.66,-250.82,0
21912,7.22,0.94,1.09,-4.65,-55.92,-308.07,0
21938,6.94,-2.11,0.76,-15.32,-85.31,-380.88,0
21962,4.64,-6.66,-0.43,-41.05,-110.49,-464.72,0
21987,-0.27,-13.95,-1.39,-82.33,-138.78,-530.94,0
22013,-8.61,-17.99,-0.01,-131.72,-127.08,-552.28,0
22037,-18.34,-18.26,3.42,-170.99,-143.66,-505.45,0
22063,-20.60,-13.60,6.68,-181.11,-60.98,-377.10,0
22087,-20.60,-9.74,10.61,-138.06,-50.43,-187.95,0
22113,-20.60,-6.39,12.61,-83.37,35.48,-54.84,0
22138,-20.60,-5.52,11.41,-41.90,27.50,2.29,0
22162,-18.93,-4.82,10.30,-18.49,116.27,30.77,0
22188,-15.98,-4.01,8.12,-11.78,61.46,31.68,0
22212,-15.13,-2.39,7.58,-5.38,59.81,31.56,0
22237,-14.50,-1.85,6.68,10.17,22.19,41.01,0
22261,-14.40,-2.10,6.46,26.51,21.76,51.86,0
22287,-14.44,-2.49,4.75,37.43,35.67,67.11,0
22312,-14.83,-3.14,3.66,42.24,9.08,88.33,0
22336,-14.15,-2.83,4.02,45.72,-22.93,106.31,0
22362,-13.87,-2.43,3.91,49.87,1.89,124.24,0
22386,-13.42,-2.19,3.96,56.02,13.59,142.84,0
22411,-13.63,-1.84,3.21,58.95,41.76,159.73,0
22437,-13.21,-1.55,2.47,54.99,71.28,179.91,0
22461,-11.83,-0.53,2.52,54.50,59.51,196.74,0
22486,-10.73,0.04,1.57,52.67,67.92,205.64,0
22511,-9.79,0.64,0.38,44.62,56.76,206.98,0
22536,-9.16,1.56,0.18,29.38,63.90,208.63,0
22560,-7.67,2.61,0.29,21.88,22.92,206.25,0
22585,-6.87,3.47,0.15,17.79,17.01,201.19,0
22611,-5.92,4.34,0.12,16.63,22.80,194.67,0
22635,-4.50,5.16,0.12,12.30,21.89,184.73,0
22660,-3.94,5.35,-0.24,9.62,0.91,170.83,0
22684,-3.85,5.85,-0.31,2.61,29.45,161.62,0
22710,-3.41,6.36,-0.01,-3.85,29.45,151.98,0
22735,-2.53,6.63,-0.02,-7.21,14.32,141.56,0
22759,-2.75,6.63,-0.26,-11.60,6.09,133.27,0
22784,-2.15,6.99,-0.13,-16.41,2.80,129.18,0
22809,-1.89,7.65,-0.11,-18.61,-1.65,121.44,0
22834,-1.72,7.34,0.40,-22.15,6.64,120.09,0
22858,-0.94,7.30,0.52,-23.55,6.64,121.56,0
22883,-0.72,7.81,0.80,-22.70,27.19,119.55,0
22909,-0.33,7.95,1.60,-23.43,38.04,118.39,0
22933,0.22,7.82,1.10,-20.20,48.90,116.07,0
22958,1.40,7.54,1.58,-21.66,43.65,115.83,0
22982,2.12,8.01,1.84,-18.24,40.36,108.94,0
23008,3.39,8.29,2.16,-12.88,30.79,96.38,0
23033,3.95,8.75,2.52,-8.00,18.53,77.78,0
23057,4.38,8.85,2.51,-0.99,9.02,58.27,0
23082,4.65,8.57,2.32,4.13,7.80,42.90,0
23106,5.13,8.54,2.02,7.61,-3.97,24.24,0
23131,4.92,8.37,1.23,8.89,4.20,4.55,0
23156,5.02,8.14,1.16,5.35,-7.63,-12.59,0
23181,5.18,8.04,1.47,4.01,-14.21,-31.06,0
23206,5.30,7.61,1.43,5.84,-8.78,-50.70,0
23230,5.52,6.89,0.94,5.96,-5.43,-69.35,0
23255,6.02,6.79,0.68,1.57,-15.07,-94.72,0
23279,7.04,6.19,1.87,-1.41,-29.21,-126.37,0
23305,7.94,5.53,3.11,4.07,-48.66,-168.74,0
23330,7.35,4.56,2.76,17.61,-48.72,-216.61,0
23354,6.70,2.67,1.50,24.99,-51.89,-262.04,0
23379,6.92,0.56,0.39,19.38,-52.50,-311.43,0
23404,7.01,-1.78,0.38,10.78,-65.00,-372.64,0
23429,5.99,-5.09,0.13,2.79,-67.38,-448.50,0
23453,3.68,-11.56,-0.06,-9.04,-91.41,-532.95,0
23478,-1.41,-18.66,-0.74,-40.80,-114.15,-599.53,0
23504,-10.93,-19.65,-0.60,-92.82,-117.56,-611.42,0
23528,-20.60,-19.65,1.43,-116.90,-57.50,-540.69,0
23554,-20.60,-16.47,6.37,-142.75,-76.77,-385.08,0
23578,-20.60,-11.77,7.78,-137.08,-182.44,-205.33,0
23604,-20.60,-10.21,11.07,-103.91,24.39,-62.34,0
23629,-20.60,-8.51,11.81,-56.78,181.70,6.38,0
23653,-20.60,-7.20,9.81,-26.23,41.89,45.52,0
23679,-19.98,-6.25,7.88,-4.46,88.65,77.11,0
23703,-17.80,-4.94,6.16,7.55,87.62,100.95,0
23728,-16.62,-3.97,4.59,17.00,88.65,123.33,0
23753,-16.86,-4.10,3.12,22.37,109.57,148.27,0
23778,-15.54,-3.66,1.57,21.02,68.41,169.79,0
23803,-14.79,-3.26,0.47,18.40,28.17,184.06,0
23828,-14.12,-2.96,0.28,14.99,8.47,195.83,0
23853,-13.69,-2.58,-0.45,9.26,7.74,207.41,0
23877,-12.96,-2.14,-0.55,-1.41,9.20,219.42,0
23902,-11.74,-1.17,0.15,-5.50,-2.26,229.00,0
23928,-10.85,-0.13,0.53,-4.71,22.86,233.93,0
23952,-9.48,0.49,0.41,-5.93,20.91,234.24,0
23977,-8.57,1.20,-0.25,-11.60,14.32,229.36,0
24001,-7.95,2.30,0.15,-15.13,15.42,224.97,0
24027,-6.56,3.12,0.71,-16.05,0.18,219.85,0
24051,-5.46,4.00,0.45,-16.72,-5.00,205.95,0
24076,-4.50,4.80,0.71,-18.24,-5.68,192.41,0
24101,-3.51,5.62,1.01,-14.28,-19.46,178.69,0
24126,-3.15,6.44,0.98,-9.10,-7.63,163.94,0
24151,-2.47,6.74,0.94,-7.02,-3.97,152.90,0
24175,-1.98,7.15,0.94,-6.60,-9.09,140.70,0
24200,-1.46,7.50,2.41,-4.83,-18.48,128.88,0
24226,-1.55,7.53,0.44,-3.37,12.62,122.35,0
24250,-0.86,7.55,-0.06,-6.05,3.23,114.24,0
24275,-0.54,7.57,0.35,-9.95,-6.53,106.31,0
24299,-0.29,7.87,0.60,-13.43,4.87,100.95,0
24324,0.23,7.83,0.61,-16.11,3.53,95.16,0
24349,0.77,7.54,1.05,-18.30,8.11,89.30,0
24374,1.52,7.82,1.29,-18.24,4.81,81.68,0
24399,1.82,8.04,1.67,-16.41,3.17,71.07,0
24423,2.01,7.78,2.19,-13.30,10.06,62.78,0
24448,2.64,7.84,2.21,-7.70,2.92,52.90,0
24472,2.99,8.10,2.22,-2.76,6.89,41.25,0
24498,3.22,8.19,2.56,1.57,3.35,28.27,0
24522,3.20,8.66,2.49,8.77,-3.60,12.60,0
24547,2.95,8.65,1.85,13.71,2.98,-0.82,0
24572,3.07,8.51,1.47,15.29,0.30,-11.18,0
24596,3.39,8.93,1.24,15.29,-4.52,-24.42,0
24621,3.50,8.62,0.88,12.37,-11.10,-42.22,0
24646,3.38,8.28,0.81,9.50,-11.83,-57.53,0
24671,3.82,7.97,1.36,8.04,-15.00,-71.37,0
24696,4.78,7.69,1.56,9.26,-15.13,-92.83,0
24720,5.28,7.08,1.67,12.73,-25.19,-122.16,0
24745,5.27,6.57,1.60,16.94,-31.53,-156.37,0
24770,5.20,5.52,1.07,17.30,-42.50,-192.59,0
24795,5.01,4.41,0.52,12.43,-62.69,-234.29,0
24819,4.76,2.63,0.36,3.16,-79.09,-279.35,0
24844,4.30,0.46,0.33,-5.87,-84.27,-326.73,0
24870,4.15,-2.55,-0.03,-18.12,-85.37,-378.44,0
24894,3.69,-6.55,0.11,-38.24,-134.27,-439.90,0
24919,0.93,-11.88,0.28,-74.77,-167.81,-501.79,0
24944,-7.24,-17.10,-0.76,-113.55,-71.95,-529.41,0
24969,-16.07,-19.65,-0.42,-130.56,69.93,-510.26,0
24995,-20.60,-18.33,4.14,-138.18,-46.35,-429.84,0
25019,-20.60,-13.93,6.47,-145.25,-169.27,-258.32,0
25045,-20.60,-9.16,11.12,-113.12,-9.94,-86.85,0
25069,-20.60,-6.28,13.17,-50.44,172.01,14.18,0
25094,-20.60,-5.56,10.27,-5.07,89.69,57.29,0
25119,-16.87,-5.40,7.49,16.21,109.81,71.25,0
25144,-14.62,-4.65,5.05,19.13,90.12,69.91,0
25169,-13.68,-3.21,4.17,20.84,56.28,64.00,0
25194,-14.87,-2.22,3.28,25.41,65.60,68.51,0
25219,-15.31,-2.00,1.58,28.52,23.53,82.23,0
25243,-15.36,-2.26,1.00,26.57,0.24,98.08,0
25268,-15.33,-2.18,1.12,24.50,-11.28,116.62,0
25294,-14.87,-2.21,1.69,25.96,6.95,137.17,0
25318,-14.60,-2.13,1.24,26.27,20.48,155.70,0
25343,-14.25,-1.74,1.36,26.94,28.90,171.98,0
25368,-13.39,-1.11,1.17,29.13,44.75,185.03,0
25393,-12.89,-0.56,1.03,30.41,51.09,199.24,0
25417,-12.11,-0.48,0.10,29.56,49.02,209.36,0
25443,-11.05,0.47,-0.12,26.21,36.03,217.11,0
25468,-10.17,1.13,-0.45,23.46,16.40,219.91,0
25492,-9.31,2.05,-0.90,18.40,17.25,217.90,0
25518,-8.24,2.57,-1.01,12.24,1.34,212.90,0
25542,-7.11,3.41,-1.27,5.05,-1.59,210.03,0
25567,-6.46,4.19,-0.94,-0.38,27.98,205.83,0
25592,-5.38,4.86,-1.08,-6.54,11.95,201.86,0
25616,-3.91,5.05,-0.48,-8.18,-11.47,194.00,0
25642,-2.81,5.51,0.32,-3.67,-15.55,184.36,0
25666,-1.90,6.06,-0.35,-4.46,20.73,171.92,0
25691,-1.56,6.52,-0.47,-4.65,15.67,156.92,0
25715,-0.93,6.65,-0.54,-10.26,6.09,145.77,0
25741,-0.62,6.40,-0.65,-14.71,-3.11,138.33,0
25766,-0.53,6.89,-0.24,-15.80,9.87,134.30,0
25790,0.01,7.42,-0.31,-16.48,19.57,129.06,0
25815,0.77,7.47,-0.19,-19.46,10.12,122.53,0
25840,1.60,7.13,-0.01,-21.96,7.19,115.70,0
25865,2.20,7.29,0.31,-21.05,11.58,107.90,0
25890,2.76,7.83,0.88,-18.43,27.50,98.14,0
25914,3.81,7.64,0.82,-16.35,23.84,85.34,0
25940,4.32,7.10,0.73,-16.54,12.07,70.70,0
25964,4.98,7.52,1.57,-14.28,17.07,57.05,0
25989,6.12,7.97,1.63,-7.88,6.09,35.34,0
26013,6.55,7.88,1.72,-2.45,7.74,8.69,0
26038,6.57,7.85,1.85,4.32,-2.63,-15.57,0
26063,6.19,7.99,1.53,11.63,-5.07,-39.54,0
26088,5.69,7.76,0.81,14.87,-1.83,-62.40,0
26113,5.25,7.15,0.11,12.73,-10.07,-81.92,0
26137,5.00,6.69,0.00,7.85,-11.04,-99.96,0
26162,5.23,6.87,0.22,4.50,-13.11,-120.76,0
26186,4.94,7.24,0.41,3.65,-18.11,-152.28,0
26212,4.14,6.32,0.09,1.27,-18.66,-180.15,0
26237,4.01,5.43,0.75,-2.27,-43.85,-204.41,0
26261,4.51,4.59,1.37,-0.74,-60.13,-236.85,0
26286,3.84,3.60,1.06,4.13,-47.81,-277.89,0
26311,4.44,1.42,0.95,2.43,-71.35,-327.52,0
26336,4.09,-2.53,0.30,-20.26,-128.84,-390.88,0
26361,2.56,-6.75,0.81,-51.78,-205.92,-457.34,0
26386,-1.27,-11.78,-0.44,-93.12,-196.40,-512.40,0
26411,-6.85,-17.47,-1.69,-145.80,-108.17,-534.23,0
26435,-12.91,-19.65,0.89,-183.00,-5.92,-530.08,0
26461,-20.60,-19.65,5.96,-200.62,-30.43,-486.00,0
26485,-20.60,-15.36,13.92,-181.60,-288.36,-332.10,0
26511,-20.60,-9.25,17.84,-125.38,-180.73,-133.81,0
26536,-20.60,-8.80,18.44,-25.13,119.87,25.03,0
26561,-20.60,-8.69,13.56,28.89,218.23,118.02,0
26586,-16.20,-7.45,9.25,46.27,85.24,144.24,0
26610,-12.87,-5.13,6.67,52.43,178.96,136.74,0
26636,-11.78,-3.48,4.22,39.56,149.45,125.95,0
26661,-11.15,-2.62,2.57,32.98,59.32,115.28,0
26686,-12.02,-2.41,1.76,22.30,96.15,107.53,0
26711,-12.14,-1.52,1.32,21.57,57.74,107.84,0
26735,-12.33,-1.69,1.40,19.01,8.78,112.05,0
26761,-12.83,-1.59,1.15,17.24,2.31,119.30,0
26786,-13.19,-1.17,1.60,21.63,9.26,131.50,0
26810,-12.94,-0.69,1.65,29.56,28.47,145.52,0
26835,-12.52,-0.51,0.53,29.80,44.02,157.47,0
26860,-12.50,-0.41,0.33,24.56,60.30,169.91,0
26885,-11.99,0.46,0.28,20.41,71.15,181.50,0
26909,-10.75,1.11,0.20,17.61,51.28,189.12,0
26935,-9.68,1.93,-0.12,15.48,36.95,189.73,0
26960,-8.87,2.79,-0.52,12.79,24.14,184.55,0
26984,-8.42,3.45,-0.62,6.82,34.26,180.16,0
27010,-7.60,4.16,-1.06,1.21,14.39,178.08,0
27034,-6.69,4.71,-1.18,-1.78,-7.38,172.90,0
27059,-5.82,5.45,-1.09,-6.84,6.03,166.13,0
27083,-5.20,5.89,-0.97,-10.32,1.46,157.90,0
27108,-4.58,6.28,-0.85,-14.10,-18.78,149.85,0
27134,-4.22,6.64,-0.57,-15.07,-4.82,143.57,0
27158,-3.85,6.95,-1.14,-17.33,17.98,139.18,0
27183,-3.29,7.04,-0.79,-19.52,0.61,134.91,0
27207,-2.56,7.25,-0.27,-21.05,-9.58,131.44,0
27233,-1.75,7.24,0.01,-19.95,-13.05,126.01,0
27258,-1.68,7.49,0.19,-18.55,-3.30,120.58,0
27282,-0.96,7.56,0.50,-17.21,6.70,116.25,0
27307,-0.12,7.48,0.66,-15.20,-10.25,111.01,0
27332,0.64,7.47,0.72,-12.02,-9.70,104.42,0
27357,0.94,7.63,0.61,-8.00,1.95,96.80,0
27381,1.45,7.79,0.59,-5.44,12.37,89.67,0
27406,2.24,7.56,0.92,-3.73,8.11,81.25,0
27431,3.03,7.59,1.00,-1.11,0.06,70.28,0
27455,3.84,7.85,1.19,3.22,20.91,56.74,0
27481,4.84,7.92,1.27,6.69,14.63,36.19,0
27505,5.16,8.53,1.19,10.48,7.56,9.73,0
27530,5.53,8.62,0.94,14.87,2.98,-18.93,0
27555,5.03,8.10,0.23,16.57,-3.97,-45.45,0
27579,5.09,7.99,-0.16,13.22,-13.66,-68.32,0
27605,4.89,7.87,-0.71,7.67,-15.92,-96.06,0
27629,5.10,7.41,-0.86,-1.90,-26.53,-125.33,0
27654,4.68,7.25,-0.84,-11.54,-34.88,-157.83,0
27678,4.25,6.38,-0.86,-20.13,-48.48,-189.17,0
27704,4.22,5.46,-0.20,-28.00,-57.69,-221.00,0
27729,4.83,4.24,0.16,-31.41,-64.27,-260.57,0
27753,4.32,2.02,-0.51,-38.24,-63.54,-308.32,0
27778,3.57,-0.98,-0.86,-51.35,-65.19,-359.29,0
27803,2.76,-4.51,-0.33,-67.21,-81.47,-414.29,0
27828,1.23,-9.03,-0.53,-84.95,-90.98,-474.84,0
27853,-4.22,-15.28,-1.91,-118.61,-65.13,-517.70,0
27878,-8.97,-19.34,0.52,-151.29,-102.50,-524.90,0
27903,-17.74,-18.16,2.55,-187.51,-161.04,-468.56,0
27928,-20.60,-13.56,7.97,-182.69,-147.26,-337.40,0
27953,-20.60,-10.26,10.50,-141.17,-41.83,-163.62,0
27978,-20.60,-8.47,11.23,-73.91,132.74,-16.31,0
28003,-20.60,-9.32,7.84,-40.01,138.59,57.41,0
28029,-17.63,-8.92,6.83,-30.44,151.46,75.95,0
28053,-14.68,-7.56,6.09,-29.04,123.04,62.78,0
28078,-13.42,-5.47,6.33,-23.49,66.28,44.79,0
28103,-14.09,-3.73,5.73,-9.28,34.81,40.22,0
28128,-16.18,-3.50,3.67,3.22,109.75,58.88,0
28153,-16.67,-3.87,2.46,12.61,60.00,88.63,0
28177,-15.83,-4.01,2.58,23.52,12.62,112.41,0
28203,-15.23,-3.96,2.46,34.56,-23.42,130.64,0
28227,-14.48,-3.90,2.11,40.60,-19.76,147.47,0
28252,-14.01,-3.58,1.47,42.73,-0.98,165.52,0
28277,-13.49,-2.96,1.30,44.26,6.09,183.14,0
28302,-12.34,-2.21,1.30,46.02,46.82,196.31,0
28327,-11.63,-1.68,0.50,41.45,54.81,204.73,0
28352,-10.38,-0.92,-0.27,33.89,28.29,207.53,0
28377,-9.60,0.25,-0.38,30.05,30.73,203.51,0
28401,-8.81,1.12,-0.52,25.90,22.80,196.68,0
28426,-7.84,2.14,-0.63,22.49,14.45,186.13,0
28452,-7.11,2.77,-1.34,15.29,0.48,176.56,0
28476,-6.70,3.60,-0.88,10.54,-18.30,169.42,0
28501,-5.79,4.47,-0.36,10.17,-12.20,160.34,0
28526,-5.03,5.14,-0.85,6.69,-7.44,148.51,0
28551,-4.68,5.92,-0.35,2.91,4.20,137.84,0
28575,-4.68,6.26,-0.43,2.49,3.23,130.83,0
28600,-3.86,6.79,-0.24,2.30,-6.53,121.98,0
28625,-4.14,7.22,-0.89,0.41,-8.85,109.00,0
28649,-4.25,7.48,-0.81,-4.04,13.23,104.06,0
28675,-3.89,7.55,-0.99,-8.67,7.56,104.00,0
28699,-3.19,7.98,-0.93,-13.79,-8.97,100.83,0
28724,-2.73,8.22,-0.47,-16.78,-2.87,93.33,0
28749,-2.83,8.30,-0.63,-18.18,-6.16,88.39,0
28774,-2.68,8.15,-0.49,-20.62,-2.14,89.00,0
28799,-2.23,8.77,0.04,-19.95,-1.28,86.80,0
28823,-2.17,9.17,0.82,-13.73,12.68,82.53,0
28848,-1.60,8.61,0.99,-4.46,6.40,83.14,0
28872,-1.06,8.29,0.61,1.63,5.61,84.18,0
28897,-0.60,8.22,0.49,5.84,17.98,82.72,0
28923,-0.29,8.14,0.60,7.91,26.58,80.83,0
28947,0.23,8.19,0.35,7.61,15.67,76.31,0
28972,0.82,8.20,0.65,5.23,9.81,69.97,0
28996,0.87,8.32,0.63,5.78,19.87,62.11,0
29021,1.20,8.40,0.99,7.79,20.67,58.51,0
29045,1.58,8.40,0.61,9.01,13.04,52.96,0
29070,2.40,8.23,0.43,7.24,-2.99,43.81,0
29096,3.16,8.14,0.38,6.94,-0.68,32.90,0
29120,4.61,8.35,0.43,5.54,-15.00,15.10,0
29145,5.81,8.75,0.60,1.82,-43.48,-13.87,0
29169,6.24,8.87,0.77,2.55,-32.75,-49.35,0
29194,6.15,8.15,0.94,5.66,-38.85,-81.06,0
29219,6.06,7.21,0.45,7.30,-42.26,-109.72,0
29244,6.16,6.35,0.17,6.63,-48.48,-139.84,0
29269,6.28,6.31,-0.20,2.49,-52.02,-178.20,0
29293,5.33,5.30,-0.90,-6.41,-62.44,-222.71,0
29318,3.78,3.56,-1.42,-21.41,-75.31,-261.36,0
29343,3.22,1.78,-1.38,-40.44,-90.61,-293.80,0
29368,2.90,0.48,-0.65,-54.83,-85.55,-331.30,0
29393,2.39,-1.78,-0.17,-65.01,-90.74,-378.86,0
29418,1.11,-5.69,-0.53,-86.47,-111.89,-434.90,0
29443,-4.13,-10.40,-0.51,-120.68,-129.09,-472.16,0
29467,-8.48,-12.88,1.63,-152.94,-173.36,-465.75,0
29493,-10.82,-13.62,2.85,-193.43,-245.12,-427.89,0
29518,-15.80,-13.75,4.14,-215.38,-74.03,-372.64,0
29543,-17.91,-16.49,6.13,-209.28,-83.72,-304.41,0
29568,-20.04,-16.78,6.58,-226.90,-183.60,-223.74,0
29593,-19.27,-15.16,11.25,-215.07,-48.24,-145.15,0
29618,-16.42,-12.75,14.89,-168.24,16.21,-97.83,0
29643,-17.23,-11.57,15.55,-109.71,-33.36,-54.11,0
29668,-17.24,-10.07,15.37,-50.13,-17.14,2.66,0
29694,-15.70,-9.02,13.77,10.23,75.67,54.30,0
29718,-13.82,-8.44,10.54,49.68,41.34,93.08,0
29743,-11.91,-8.54,7.52,65.11,124.45,115.22,0
29768,-11.97,-8.09,5.19,61.39,99.93,125.40,0
29793,-11.40,-7.53,4.98,57.61,72.49,130.09,0
29818,-11.41,-6.64,5.01,59.19,30.54,134.55,0
29843,-12.34,-6.08,4.09,61.57,6.89,143.94,0
29868,-12.83,-5.42,4.08,65.72,28.29,160.95,0
29892,-13.10,-4.94,3.89,72.36,35.97,179.61,0
29918,-12.71,-4.71,3.46,77.06,33.29,196.07,0
29943,-12.33,-4.06,3.13,78.10,41.64,210.09,0
29967,-12.07,-3.50,2.54,75.84,63.41,222.35,0
29993,-11.60,-2.88,1.76,69.86,61.70,231.44,0
30017,-10.91,-1.96,1.47,62.12,40.97,237.96,0
30042,-9.92,-0.88,1.22,56.63,50.24,241.62,0
30067,-8.83,-0.13,0.67,49.68,46.21,241.80,0
30092,-7.44,0.90,-0.11,39.93,21.58,235.28,0
30117,-7.18,1.91,-0.36,27.55,17.74,225.22,0
30141,-6.27,2.76,-0.46,16.94,8.41,217.29,0
30167,-4.50,3.65,-0.03,8.16,7.07,207.53,0
30191,-2.94,4.66,0.42,-0.07,17.37,191.80,0
30216,-2.38,5.41,0.14,-3.73,-3.85,172.35,0
30240,-1.49,5.92,0.30,-6.48,-1.22,152.96,0
30265,-1.30,6.39,0.48,-10.50,-7.44,135.83,0
30291,-0.95,7.06,0.55,-13.00,-7.26,120.46,0
30315,-0.89,7.70,0.58,-14.65,-5.68,105.46,0
30340,-1.28,7.68,0.73,-14.95,-4.09,96.68,0
30364,-1.09,7.65,0.97,-14.71,-10.19,93.88,0
30389,-0.99,7.97,1.24,-13.06,8.41,88.75,0
30415,-1.10,8.21,1.41,-9.16,25.54,87.66,0
30439,-0.47,7.95,1.66,-7.88,16.34,88.51,0
30464,0.20,8.33,2.33,-3.31,22.50,83.75,0
30488,1.11,8.76,2.68,4.13,16.82,75.16,0
30513,1.62,8.79,2.45,11.15,13.53,60.40,0
30538,1.89,8.78,2.19,15.41,10.12,45.52,0
30563,1.57,8.75,2.02,17.79,4.02,32.17,0
30588,1.49,9.14,1.68,22.37,3.90,21.86,0
30612,1.89,8.87,1.08,22.24,3.59,11.44,0
30637,2.18,8.80,0.93,19.07,-5.07,-0.39,0
30661,2.57,8.74,0.48,15.66,1.46,-13.01,0
30687,3.25,8.32,0.41,10.17,-6.59,-28.01,0
30712,3.67,7.92,0.28,4.99,-6.77,-47.83,0
30736,4.10,7.47,0.70,-0.01,-15.98,-69.54,0
30761,4.38,7.48,1.12,-1.72,-18.48,-94.96,0
30785,4.41,7.19,0.83,-0.81,-17.14,-125.33,0
30811,3.93,6.50,0.69,-1.78,-23.54,-157.59,0
30835,3.71,5.75,1.19,-2.21,-33.91,-188.68,0
30860,3.31,4.86,1.89,2.73,-39.27,-223.87,0
30885,2.41,3.48,0.83,8.65,-24.82,-263.44,0
30910,2.32,1.35,-0.03,3.65,-34.64,-303.62,0
30935,3.22,-0.85,0.89,-4.52,-54.70,-354.29,0
30959,0.67,-3.91,1.01,-4.04,-64.45,-422.83,0
30984,-3.77,-9.57,-0.79,-19.10,-56.41,-470.27,0
31010,-6.25,-12.75,1.13,-44.40,-98.11,-492.52,0
31034,-11.46,-14.96,2.68,-46.23,-41.22,-500.63,0
31059,-16.31,-16.94,-0.10,-50.68,-7.02,-461.67,0
31084,-20.60,-16.18,0.15,-88.06,-158.23,-383.74,0
31109,-20.60,-14.51,2.15,-121.11,-88.42,-268.99,0
31134,-20.60,-12.53,4.72,-128.73,-25.00,-145.45,0
31159,-20.60,-10.20,8.08,-123.36,-54.88,-36.92,0
31184,-20.60,-8.49,11.26,-84.89,-27.81,49.73,0
31209,-18.86,-7.99,11.24,-32.82,48.17,110.09,0
31234,-15.83,-7.18,10.05,7.79,72.86,143.39,0
31259,-14.20,-6.61,7.49,37.61,117.31,160.83,0
31284,-13.68,-6.33,4.93,49.19,109.63,167.53,0
31309,-13.50,-5.97,2.67,52.30,84.32,169.97,0
31334,-13.39,-5.09,1.08,47.30,47.01,176.07,0
31359,-12.91,-4.53,0.34,40.23,12.80,182.90,0
31383,-12.48,-3.54,0.17,34.56,7.98,188.08,0
31409,-12.16,-2.70,-0.05,30.11,3.41,191.74,0
31433,-11.75,-2.00,-0.39,25.17,-17.87,196.92,0
31458,-11.15,-1.39,-0.16,19.50,-1.35,202.90,0
31484,-10.21,-0.69,0.10,16.15,7.37,205.28,0
31508,-9.36,0.19,0.34,16.51,-7.44,199.30,0
31533,-8.75,1.11,0.15,17.06,-10.43,192.35,0
31557,-8.65,1.80,-0.08,14.32,1.03,188.33,0
31583,-7.93,2.35,0.14,10.96,-7.50,186.31,0
31608,-6.76,3.59,0.29,10.96,-14.58,177.35,0
31632,-6.33,4.44,0.67,11.63,-17.32,167.47,0
31657,-5.95,5.10,0.55,13.28,-3.97,160.34,0
31682,-5.60,5.70,-0.06,12.37,-4.70,153.51,0
31707,-5.22,5.97,0.21,8.40,-2.57,148.45,0
31731,-4.53,6.67,0.59,7.37,4.39,145.34,0
31756,-3.78,7.12,0.18,6.82,-17.32,138.63,0
31781,-3.98,7.15,0.33,3.89,7.68,134.18,0
31806,-3.37,7.36,0.04,0.66,8.35,131.62,0
31831,-2.84,7.82,0.25,-2.09,-0.74,126.38,0
31855,-2.64,7.74,0.08,-5.62,-6.53,123.51,0
31880,-2.19,7.64,0.17,-8.31,-3.11,124.30,0
31904,-1.68,7.87,0.30,-11.48,7.01,124.97,0
31930,-1.65,8.04,0.42,-13.98,26.89,124.91,0
31955,-0.65,7.88,0.51,-17.02,18.53,125.64,0
31979,0.20,7.52,0.49,-20.74,12.50,124.18,0
32004,0.22,7.62,0.61,-22.51,27.62,122.84,0
32029,1.20,7.95,1.36,-24.52,18.47,123.14,0
32054,2.09,7.80,1.79,-23.12,-5.31,118.57,0
32079,2.99,7.38,1.97,-18.49,8.96,112.17,0
32103,4.19,7.53,2.52,-11.96,2.13,104.73,0
32129,5.01,7.84,2.50,-5.01,2.56,89.85,0
32153,5.83,7.76,2.72,1.76,-6.16,73.69,0
32178,6.12,7.19,2.34,9.44,-12.87,55.40,0
32202,7.10,6.92,2.18,13.83,-11.71,35.10,0
32227,8.01,7.04,2.06,17.18,-16.53,9.24,0
32253,8.46,7.27,1.85,19.50,-10.37,-23.81,0
32277,8.07,7.36,1.20,19.99,-14.46,-58.01,0
32302,7.42,7.06,0.29,16.45,-17.57,-86.73,0
32326,7.62,5.93,-0.49,4.50,-27.32,-113.20,0
32351,7.85,5.38,-0.13,-8.06,-31.71,-144.35,0
32377,7.24,5.12,-0.04,-12.57,-20.55,-176.61,0
32401,7.21,4.81,0.27,-16.05,-25.67,-211.12,0
32426,7.00,3.86,1.01,-20.38,-42.20,-250.27,0
32451,6.18,2.57,1.51,-19.16,-54.58,-292.40,0
32476,4.24,1.11,0.27,-13.37,-22.26,-332.58,0
32500,3.62,-1.15,-1.16,-21.41,-23.48,-369.23,0
32525,3.59,-3.93,-0.78,-38.00,-21.71,-418.92,0
32551,2.25,-7.55,0.15,-46.05,-46.04,-483.50,0
32575,-1.19,-13.45,-0.27,-61.17,-50.00,-542.52,0
32600,-5.36,-19.65,-0.35,-83.98,-56.71,-592.22,0
32625,-11.53,-19.65,0.48,-110.44,-25.19,-598.13,0
32650,-17.13,-19.65,2.78,-138.43,-162.93,-548.62,0
32676,-20.60,-19.65,6.10,-141.72,-168.11,-441.55,0
32700,-20.60,-15.81,6.86,-133.79,-105.19,-289.54,0
32726,-20.60,-14.57,7.29,-105.13,-4.21,-149.05,0
32750,-20.60,-13.95,6.92,-85.68,31.52,-39.48,0
32776,-18.52,-12.33,7.17,-79.46,36.46,32.96,0
32800,-14.62,-10.38,7.98,-59.34,42.86,71.80,0
32825,-10.99,-8.49,8.35,-31.60,88.04,84.24,0
32850,-9.98,-7.89,6.44,-7.51,56.28,79.97,0
32875,-9.97,-7.29,5.01,7.12,123.84,72.84,0
32900,-12.22,-6.47,2.12,8.34,126.15,70.58,0
32924,-13.06,-6.23,1.27,8.89,34.08,82.47,0
32949,-13.48,-6.70,0.86,2.98,-24.70,99.12,0
32975,-13.52,-6.47,1.47,1.63,-21.22,114.79,0
32999,-13.45,-5.91,1.51,6.39,-8.97,130.16,0
33024,-12.93,-5.57,1.84,12.85,2.92,145.58,0
33049,-12.56,-5.03,2.19,20.29,4.75,158.51,0
33074,-12.37,-4.58,1.74,28.58,14.63,169.36,0
33098,-12.06,-4.12,0.94,34.44,47.31,177.11,0
33123,-11.82,-3.89,0.33,31.21,53.10,180.89,0
33149,-11.28,-3.29,0.23,25.90,17.92,184.97,0
33173,-10.63,-2.20,0.43,25.23,6.95,186.50,0
33198,-9.98,-1.07,0.51,30.78,-0.98,182.35,0
33223,-9.26,-0.27,0.17,31.45,26.09,177.78,0
33248,-8.29,0.51,0.02,29.68,11.52,168.81,0
33273,-8.21,1.51,-0.30,27.49,-3.85,154.85,0
33297,-7.80,2.08,-0.45,24.07,-6.10,146.50,0
33323,-7.97,2.89,-1.04,19.56,5.54,137.47,0
33347,-7.95,3.30,-1.05,12.12,12.56,131.01,0
33372,-7.88,3.81,-0.19,6.76,-0.25,128.27,0
33396,-7.24,4.31,0.13,8.04,0.97,125.09,0
33421,-6.61,4.73,-0.33,8.10,-3.30,120.70,0
33447,-7.29,5.20,-0.76,4.50,29.63,117.23,0
33471,-6.60,5.33,-0.12,2.24,17.62,117.90,0
33496,-5.63,6.05,-0.08,-0.07,-11.28,113.08,0
33520,-5.47,6.35,-0.22,1.33,-19.88,106.44,0
33546,-6.00,6.65,0.18,0.54,22.56,108.20,0
33571,-5.31,7.18,0.47,4.26,14.63,110.34,0
33595,-4.54,7.37,0.23,7.06,-3.85,108.81,0
33620,-3.48,7.35,-0.04,7.37,-7.57,105.89,0
33644,-2.88,7.89,0.12,7.73,-1.04,96.01,0
33669,-2.68,8.38,-0.23,8.10,9.69,83.81,0
33694,-2.34,8.45,-0.75,5.72,-9.09,72.53,0
33719,-1.84,8.36,-0.52,2.98,-18.66,63.39,0
33744,-1.43,8.91,-0.25,3.34,-8.85,54.00,0
33768,-1.18,9.14,-0.44,5.54,-3.48,41.92,0
33793,-1.20,9.40,-0.48,4.80,-3.42,31.68,0
33817,-1.03,9.33,-0.27,5.84,-11.83,21.38,0
33843,-1.44,9.25,-0.94,6.69,-4.64,12.17,0
33867,-1.88,9.23,-1.23,4.19,2.92,6.86,0
33892,-2.12,9.46,-1.13,0.17,-0.13,1.44,0
33917,-2.44,9.42,-0.81,-1.35,-9.88,-2.04,0
33941,-2.64,9.18,-0.88,-2.63,-7.75,-3.56,0
33966,-2.51,9.16,-0.82,-4.28,-4.27,-2.71,0
33990,-2.30,9.48,-0.56,-4.34,-2.44,-5.70,0
34015,-2.44,9.48,-0.57,-4.89,-6.10,-11.73,0
34040,-2.90,9.47,-0.31,-5.20,-8.36,-15.21,0
34065,-3.17,9.20,-0.46,-3.43,-6.53,-13.93,0
34090,-3.18,9.13,-0.46,-2.09,0.85,-11.79,0
34114,-3.21,9.33,-0.74,-1.48,1.76,-13.38,0
34139,-3.43,9.21,-0.89,-3.00,-2.44,-13.50,0
34163,-3.44,9.20,-0.60,-2.94,-0.19,-10.76,0
34188,-3.29,9.29,-0.39,-1.48,2.86,-8.20,0
34213,-3.19,9.36,-0.36,0.23,3.84,-9.29,0
34238,-3.02,9.54,-0.29,1.63,3.11,-13.38,0
34263,-3.34,9.42,-0.62,1.63,-2.08,-17.04,0
34287,-3.73,9.24,-0.73,0.23,-1.16,-15.21,0
34312,-3.94,9.39,-0.76,-0.56,2.98,-12.22,0
34336,-3.91,9.14,-0.81,-3.43,2.56,-11.06,0
34361,-4.22,9.26,-0.44,-6.41,4.45,-10.09,0
34386,-4.20,9.47,0.03,-6.60,-1.41,-8.14,0
34410,-4.32,9.60,0.05,-4.22,0.12,-6.18,0
34436,-4.14,9.33,0.10,-2.15,-0.31,-2.89,0
34460,-3.98,9.34,-0.01,-0.32,2.80,-1.25,0
34485,-3.99,9.32,-0.07,-0.38,0.79,-0.94,0
34510,-4.03,9.30,0.00,-0.56,3.65,-0.76,0
34534,-3.91,9.36,-0.04,-0.68,-2.26,0.28,0
34559,-3.85,9.34,-0.22,-0.81,0.42,1.74,0
34583,-3.73,9.32,-0.18,-1.23,-1.04,2.11,0
34608,-3.53,9.35,-0.23,-2.15,-3.18,1.50,0
34632,-3.42,9.33,-0.39,-2.21,-3.78,-0.09,0
34657,-3.56,9.08,-0.37,-3.49,-4.09,-1.18,0
34682,-3.68,9.00,-0.32,-5.32,-5.43,-1.73,0
34706,-3.59,9.12,-0.24,-5.99,-5.61,-2.22,0
34732,-3.62,9.04,-0.21,-5.26,-3.85,-3.26,0
34756,-3.76,9.09,-0.06,-4.04,-6.16,-4.78,0
34781,-3.81,8.93,-0.28,-3.06,-5.49,-5.82,0
34805,-3.97,8.88,-0.46,-2.57,-4.82,-5.15,0
34830,-3.97,8.74,-0.61,-4.22,-3.72,-2.83,0
34855,-3.92,8.85,-0.23,-4.10,-0.74,-1.49,0
34879,-3.69,9.21,0.05,-1.84,-3.18,-2.16,0
34904,-3.80,9.40,0.07,1.88,0.12,-3.87,0
34928,-4.05,9.51,-0.07,5.66,-0.25,-3.75,0
34953,-4.24,9.54,-0.37,7.91,6.40,-1.49,0
34979,-4.30,9.49,-0.58,8.83,5.00,1.50,0
35003,-4.39,9.27,-0.90,8.40,6.03,5.77,0
35028,-4.27,9.12,-0.91,7.00,8.29,10.22,0
35052,-4.07,9.09,-0.76,4.68,9.08,12.90,0
35077,-3.76,8.98,-0.49,2.79,6.40,14.42,0
35101,-3.46,8.97,-0.13,2.00,5.00,14.18,0
35126,-3.22,8.93,0.10,2.43,3.59,12.84,0
35151,-2.88,9.18,0.31,4.56,5.24,9.43,0
35175,-2.84,9.11,0.29,6.63,7.01,4.18,0
35200,-2.97,9.05,-0.02,7.30,4.32,-2.47,0
35225,-3.21,9.10,-0.23,5.48,-1.22,-7.04,0
35250,-3.58,9.25,-0.37,3.46,-2.26,-8.56,0
35274,-3.90,9.32,-0.51,1.51,-2.44,-7.65,0
35299,-4.03,9.40,-0.49,-0.01,-2.75,-6.55,0
35324,-4.08,9.39,-0.55,-1.05,-2.57,-5.09,0
35348,-4.07,9.46,-0.53,-1.05,-2.69,-2.59,0
35373,-4.09,9.42,-0.48,-0.74,-1.59,-0.15,0
35397,-3.97,9.34,-0.51,-0.68,-0.86,0.89,0
35422,-3.82,9.26,-0.58,-0.74,-2.57,1.74,0
35447,-3.69,9.23,-0.36,-0.26,-1.71,2.47,0
35471,-3.72,9.20,-0.36,1.15,-0.61,3.21,0
35497,-3.62,9.18,-0.41,2.18,0.42,3.39,0
35521,-3.57,9.17,-0.47,2.30,1.46,2.96,0
35546,-3.63,9.26,-0.39,2.55,0.97,2.41,0
35570,-3.72,9.17,-0.44,3.22,1.34,1.68,0
35595,-3.69,9.16,-0.57,2.67,0.97,1.68,0
35620,-3.59,9.08,-0.49,1.45,0.24,1.86,0
35644,-3.59,9.12,-0.42,0.66,-0.19,1.13,0
35669,-3.58,9.18,-0.47,-0.13,-0.92,-0.33,0
35693,-3.59,9.33,-0.33,0.23,-1.65,-1.73,0
35718,-3.68,9.22,-0.42,0.66,-1.53,-2.77,0
35742,-3.83,9.18,-0.56,0.72,-2.38,-3.32,0
35767,-3.90,9.16,-0.52,0.29,-2.87,-2.22,0
35793,-3.90,9.10,-0.44,-0.07,-2.93,-0.70,0
35817,-3.87,9.19,-0.40,-0.20,-4.09,0.34,0
35842,-3.79,9.35,-0.42,0.48,-2.32,0.71,0
35866,-3.65,9.40,-0.42,1.94,-1.89,0.28,0
35891,-3.80,9.22,-0.60,2.91,-1.71,-0.33,0
35915,-3.87,9.13,-0.66,2.43,-2.38,0.10,0
35940,-3.81,9.14,-0.82,1.39,-2.26,0.71,0
35965,-3.81,9.25,-0.71,0.54,-1.47,0.64,0
35989,-3.77,9.16,-0.69,-0.07,-2.14,0.71,0
36014,-3.73,9.25,-0.53,-0.13,-2.32,0.58,0
36038,-3.77,9.29,-0.49,0.72,-1.10,0.71,0
36063,-3.73,9.37,-0.66,1.39,0.18,1.32,0
36089,-3.92,9.24,-0.87,1.39,0.85,2.11,0
36113,-3.86,9.10,-0.79,-0.07,0.48,3.33,0
36138,-3.57,9.13,-0.67,-0.74,-0.13,3.88,0
36162,-3.49,9.20,-0.52,-0.50,0.85,3.75,0
36187,-3.50,9.22,-0.46,-0.20,1.40,2.35,0
36211,-3.47,9.20,-0.55,0.35,0.54,0.52,0
36236,-3.56,9.13,-0.56,0.66,1.22,-0.15,0
36261,-3.59,9.13,-0.55,0.17,1.22,0.28,0
36285,-3.46,9.19,-0.44,0.90,1.76,-0.21,0
36310,-3.53,9.22,-0.44,1.76,2.19,-1.55,0
36334,-3.67,9.08,-0.56,0.66,-0.07,-2.47,0
36359,-3.73,9.14,-0.55,-0.32,-1.96,-2.40,0
36384,-3.64,9.17,-0.39,0.11,-1.89,-1.61,0
36409,-3.63,9.25,-0.24,2.12,-0.25,-1.18,0
36434,-3.61,9.38,-0.41,3.59,1.70,-1.12,0
36458,-3.68,9.30,-0.57,3.83,0.42,-1.98,0
36483,-3.74,9.25,-0.64,3.28,0.36,-2.47,0
36507,-3.78,9.14,-0.73,2.37,-1.35,-1.37,0
36532,-3.83,9.19,-0.77,1.02,0.30,0.34,0
36557,-3.63,9.25,-0.61,0.05,-0.80,0.40,0
36581,-3.55,9.33,-0.46,-0.26,-1.89,-1.12,0
36606,-3.65,9.35,-0.55,0.54,-1.59,-2.16,0
36630,-3.77,9.25,-0.65,0.60,-1.83,-1.37,0
36655,-3.81,9.28,-0.65,0.23,-0.86,-0.51,0
36680,-3.88,9.33,-0.69,-0.50,-0.68,0.03,0
36705,-3.90,9.30,-0.70,-1.41,-3.78,0.95,0
36730,-3.98,9.31,-0.70,-1.66,-1.65,2.72,0
36754,-3.73,9.29,-0.54,-1.17,-1.28,3.63,0
36779,-3.68,9.16,-0.56,-0.38,-0.74,4.06,0
36803,-3.68,9.18,-0.57,0.23,-1.22,4.30,0
36828,-3.50,9.10,-0.54,0.72,-0.00,3.63,0
36852,-3.46,9.16,-0.64,0.84,0.42,1.86,0
36877,-3.62,9.38,-0.54,1.51,-0.25,1.01,0
36902,-3.79,9.55,-0.69,3.04,2.31,1.38,0
36926,-4.05,9.52,-0.95,4.87,4.20,2.78,0
36951,-4.13,9.44,-1.29,5.35,8.04,4.97,0
36976,-4.12,9.12,-1.56,2.91,8.41,8.27,0
37001,-3.77,9.09,-1.12,-1.17,5.00,10.46,0
37026,-3.37,9.18,-0.68,-2.70,2.01,10.89,0
37050,-3.16,9.26,-0.30,-0.93,2.86,10.40,0
37075,-3.02,9.18,-0.31,1.27,4.39,9.18,0
37099,-2.87,9.03,-0.37,1.94,5.48,7.72,0
37124,-2.65,8.87,-0.44,-0.44,4.39,4.24,0
37148,-2.73,8.80,-0.33,-3.67,-1.47,-0.70,0
37173,-2.73,8.93,-0.07,-5.81,-6.77,-5.39,0
37199,-2.81,9.04,0.23,-5.56,-11.53,-9.29,0
37223,-3.02,9.42,0.31,-3.06,-12.20,-12.10,0
37248,-3.53,9.77,0.15,1.51,-9.21,-13.87,0
37272,-4.04,9.76,-0.25,4.87,-6.47,-13.75,0
37297,-4.47,9.38,-1.07,5.54,-3.48,-10.51,0
37321,-4.62,8.72,-1.48,0.78,-0.98,-3.99,0
37346,-4.24,8.49,-1.44,-6.90,-4.70,2.17,0
37371,-3.62,8.86,-0.74,-12.76,-6.83,2.47,0
37396,-3.13,9.16,-0.05,-13.67,-13.97,-1.06,0
37421,-3.12,9.44,0.43,-8.67,-17.69,-5.27,0
37445,-3.27,9.59,0.49,-0.13,-12.32,-8.44,0
37470,-3.50,9.61,0.24,8.22,-8.85,-11.25,0
37495,-3.97,9.47,-0.54,13.83,-6.77,-11.61,0
37519,-4.49,9.20,-1.22,14.44,-4.82,-7.95,0
37545,-4.76,9.27,-1.54,12.43,-3.85,-1.18,0
37569,-4.63,9.72,-1.50,10.90,-1.22,5.16,0
37594,-4.47,9.98,-1.46,11.09,3.65,10.40,0
37618,-4.39,10.15,-1.46,11.88,8.17,15.10,0
37643,-4.35,9.90,-1.77,12.43,12.74,19.30,0
37669,-4.04,9.16,-1.89,9.74,15.00,23.94,0
37693,-3.56,8.71,-1.75,5.23,15.61,27.41,0
37718,-2.90,8.71,-1.23,1.09,15.54,28.08,0
37742,-2.38,8.95,-0.63,-0.01,14.45,24.42,0
37767,-1.94,9.11,-0.09,1.33,11.40,17.17,0
37791,-1.82,9.20,-0.01,3.52,7.80,8.69,0
37817,-2.06,9.11,-0.03,3.95,2.13,1.19,0
37842,-2.42,9.06,-0.15,4.01,-0.43,-3.20,0
37866,-2.66,9.11,-0.56,2.37,-2.87,-6.00,0
37891,-3.01,9.29,-0.66,-0.74,-5.92,-7.47,0
37915,-3.27,9.61,-0.80,-3.00,-5.13,-8.38,0
37940,-3.35,9.82,-0.75,-4.59,-6.83,-10.21,0
37965,-3.69,9.92,-0.68,-5.01,-9.94,-11.43,0
37989,-3.97,9.62,-1.04,-5.32,-10.61,-9.36,0
38014,-3.89,9.38,-0.94,-6.11,-13.36,-4.48,0
38039,-3.73,9.43,-0.52,-5.13,-10.31,0.22,0
38064,-3.71,9.53,-0.37,-1.48,-7.57,4.24,0
38088,-3.67,9.46,-0.60,3.04,-3.48,8.02,0
38113,-3.69,9.28,-0.75,6.09,0.67,11.25,0
38138,-3.55,9.18,-1.09,6.82,3.72,12.29,0
38162,-3.51,9.01,-1.42,5.48,3.29,11.92,0
38187,-3.50,8.78,-1.50,2.12,1.15,12.29,0
38211,-3.03,8.75,-1.32,-1.54,-1.22,13.02,0
38237,-2.64,8.93,-0.63,-2.33,-3.42,12.17,0
38261,-2.44,9.04,-0.32,0.66,-3.05,10.16,0
38286,-2.35,9.16,-0.23,5.35,0.97,7.78,0
38311,-2.27,9.22,-0.60,8.22,3.23,5.16,0
38335,-2.29,9.16,-0.74,8.22,2.13,1.44,0
38360,-2.47,9.22,-1.10,6.27,0.06,-2.53,0
38384,-2.65,9.38,-1.19,3.22,-4.33,-5.45,0
38409,-2.82,9.47,-1.17,0.72,-6.10,-6.31,0
38434,-3.01,9.57,-1.11,-0.13,-6.10,-5.94,0
38459,-3.07,9.61,-1.28,-0.93,-4.39,-4.29,0
38484,-2.94,9.64,-1.21,-2.15,-4.46,-3.26,0
38508,-3.04,9.64,-1.32,-3.06,-3.24,-2.89,0
38533,-3.14,9.52,-1.20,-3.49,-3.72,-1.18,0
38557,-2.99,9.44,-1.17,-3.61,-2.02,-0.21,0
38582,-2.91,9.50,-1.15,-3.91,-1.53,-0.15,0
38607,-2.95,9.60,-1.05,-3.31,-1.53,-1.00,0
38631,-3.17,9.45,-1.07,-1.23,0.79,-0.94,0
38656,-3.29,9.23,-1.30,-0.68,4.02,0.22,0
38680,-3.25,9.02,-1.36,-2.70,3.72,0.95,0
38705,-3.13,9.02,-1.07,-4.46,3.04,1.74,0
38730,-2.88,8.97,-0.87,-5.07,4.39,1.99,0
38755,-2.42,8.90,-0.61,-5.01,4.32,0.40,0
38780,-2.21,9.19,-0.31,-3.79,2.62,-4.54,0
38804,-2.37,9.30,-0.28,-1.78,-1.41,-10.21,0
38829,-2.62,9.48,-0.23,0.96,-3.72,-13.32,0
38853,-2.90,9.55,-0.48,3.77,-5.55,-14.60,0
38878,-3.34,9.71,-0.67,5.84,-7.14,-14.96,0
38903,-3.73,9.92,-1.10,6.57,-7.69,-13.38,0
38928,-4.18,9.78,-1.47,6.51,-5.68,-8.99,0
38953,-4.33,9.56,-1.65,4.99,-3.42,-1.86,0
38977,-4.21,9.40,-1.59,3.40,-1.10,3.75,0
39002,-3.85,9.23,-1.49,1.63,0.30,7.90,0
39026,-3.44,9.14,-1.36,0.48,2.92,11.19,0
39051,-3.17,9.01,-1.18,-0.26,4.20,12.35,0
39076,-2.82,9.07,-0.89,-0.32,5.30,11.62,0
39100,-2.61,9.23,-0.59,1.57,6.28,9.12,0
39125,-2.57,9.31,-0.59,3.40,5.91,5.77,0
39149,-2.66,9.24,-0.89,4.87,5.67,2.35,0
39175,-2.73,9.12,-0.87,3.83,3.59,0.40,0
39199,-2.67,9.17,-0.98,2.30,2.43,-1.06,0
39224,-2.77,9.38,-1.03,0.90,0.61,-3.01,0
39249,-2.92,9.40,-0.93,0.35,1.15,-4.36,0
39273,-3.01,9.28,-1.09,-0.50,0.54,-4.90,0
39298,-3.03,9.28,-1.02,-2.39,-0.43,-5.27,0
39322,-3.06,9.37,-0.90,-3.79,-1.04,-5.76,0
39347,-3.15,9.41,-0.70,-4.22,-3.11,-6.61,0
39371,-3.08,9.34,-0.68,-3.49,-3.11,-6.73,0
39396,-3.09,9.31,-0.46,-1.84,-4.46,-7.16,0
39421,-3.27,9.25,-0.55,0.05,-4.76,-6.92,0
39446,-3.31,9.34,-0.58,1.27,-5.92,-7.10,0
39471,-3.48,9.45,-0.73,2.67,-6.16,-6.43,0
39495,-3.65,9.49,-0.96,3.52,-5.86,-5.27,0
39520,-3.75,9.35,-0.99,3.59,-4.82,-3.38,0
39545,-3.84,9.27,-1.35,2.73,-2.63,-1.86,0
39569,-3.71,9.25,-1.17,1.27,-4.03,-0.15,0
39594,-3.56,9.19,-1.14,-0.26,-4.58,0.89,0
39618,-3.42,9.26,-1.04,-0.68,-4.52,1.38,0
39643,-3.21,9.37,-0.72,0.41,-4.39,1.99,0
