t_ms,ax,ay,az,gx,gy,gz,label
5,-1.03,9.33,-1.56,57.55,-16.04,13.33,1
29,-0.79,9.19,-2.16,65.41,-18.6,15.16,1
54,-0.7,9.03,-2.81,67.61,-26.1,15.83,1
79,-0.82,8.9,-3.11,67.91,-31.71,16.5,1
103,-1.11,8.75,-3.68,66.76,-19.15,19.73,1
128,-1.18,8.68,-4.12,62.55,3.35,23.82,1
152,-0.24,8.45,-4.83,57.49,7.19,25.58,1
177,0.05,8.37,-5.13,52.79,-8.42,22.96,1
201,0.39,8.31,-5.53,46.27,-16.47,17.47,1
227,0.39,8.42,-5.71,36.39,-9.58,11.5,1
252,0.37,8.55,-5.75,27.98,-6.1,7.41,1
276,0.45,8.42,-5.68,20.6,-7.93,2.66,1
301,0.44,8.56,-5.56,13.89,-5.8,-2.28,1
325,0.13,8.53,-5.25,10.29,-4.09,-5.51,1
350,0.15,8.6,-5.14,10.96,-6.35,-7.59,1
375,0.12,8.41,-5.11,11.15,-12.26,-11.06,1
399,-0.13,8.32,-4.99,12,-5.13,-13.32,1
424,-0.14,8.39,-4.68,13.65,10.97,-14.84,1
448,0,8.31,-5.08,16.88,7.5,-17.71,1
473,-0.04,8.12,-5.25,18.89,-9.82,-20.39,1
498,-0.53,8.17,-5.56,17.91,-13.48,-20.7,1
523,-1.02,7.83,-5.62,11.45,-1.65,-19.05,1
548,-1.32,8.05,-5.69,4.5,11.4,-15.03,1
572,-1.09,7.75,-5.89,0.66,11.4,-11.73,1
597,-0.45,7.94,-5.69,-1.96,-1.41,-9.11,1
621,-1.7,8.09,-5.56,-4.59,16.4,-5.21,1
646,-1.12,7.98,-5.67,-2.76,9.45,-3.07,1
670,-1.01,7.96,-5.7,-2.33,-5.07,-2.22,1
695,-1.13,7.92,-5.49,-3.98,-2.99,-2.22,1
720,-1.19,7.92,-5.7,-4.71,3.17,-1.18,1
744,-1.19,7.97,-6.12,-10.32,6.82,0.1,1
769,-1.39,7.98,-6.06,-16.66,-0.19,4,1
793,-1.85,8.02,-5.7,-20.07,-6.47,10.58,1
818,-1.65,8.1,-5.43,-24.04,8.35,17.29,1
842,-1.32,8.14,-5.02,-25.68,17.74,21.38,1
868,-0.94,8.38,-4.68,-22.57,16.03,22.35,1
893,-0.67,8.49,-4.49,-16.72,12.43,22.35,1
917,-0.37,8.57,-4.41,-8.98,-0.55,21.86,1
942,-0.41,8.56,-4.51,-4.04,-7.99,21.62,1
966,-0.24,8.51,-4.65,-1.84,-5.43,22.11,1
991,0.18,8.38,-4.87,-2.82,-6.35,19.85,1
1016,0.51,8.36,-4.85,-4.59,-3.85,15.4,1
1040,0.65,8.29,-4.73,-5.87,-2.14,11.5,1
1065,0.79,8.35,-4.71,-6.9,-1.28,6.5,1
1089,0.66,8.45,-4.6,-6.96,-0.49,2.9,1
1114,0.57,8.5,-4.38,-5.07,-0.13,1.13,1
1138,0.53,8.49,-4.33,-2.57,-1.1,-0.57,1
1163,0.48,8.49,-4.48,-1.17,-0.13,-2.1,1
1189,0.28,8.45,-4.51,-0.5,0.67,-2.53,1
1213,0.06,8.39,-4.53,-1.66,2.62,-2.59,1
1238,0.05,8.48,-4.56,-1.17,4.63,-1.67,1
1262,0,8.42,-4.6,-1.11,6.4,-1.06,1
1287,-0.12,8.41,-4.54,-0.26,5.42,-0.27,1
1311,-0.33,8.44,-4.58,1.15,0.91,1.32,1
1336,-0.2,8.4,-4.94,1.94,4.57,3.33,1
1361,-0.02,8.4,-5.03,-0.26,2.5,2.53,1
1385,-0.11,8.49,-5.06,-2.82,1.28,1.93,1
1410,-0.16,8.58,-4.96,-5.2,1.82,2.6,1
1434,-0.03,8.69,-4.82,-6.84,2.31,3.88,1
1459,0.06,8.7,-4.65,-7.33,2.25,4.43,1
1483,0.23,8.63,-4.65,-6.96,3.04,3.82,1
1508,0.31,8.57,-4.53,-6.05,-0.37,2.23,1
1533,0.31,8.53,-4.38,-5.62,0.24,0.52,1
1557,0.11,8.48,-4.27,-4.77,-1.04,0.1,1
1582,-0.02,8.55,-4.16,-3.55,0.12,1.32,1
1606,0.05,8.68,-4.34,-2.82,2.86,3.57,1
1631,0.34,8.65,-4.36,-3.06,7.43,4.43,1
1656,0.55,8.6,-4.5,-3.31,5.24,2.6,1
1680,0.51,8.63,-4.33,-2.21,0.36,0.34,1
1705,0.38,8.65,-4.55,-1.35,2.07,-0.09,1
1729,0.2,8.64,-4.55,-1.05,1.95,0.1,1
1754,0.25,8.54,-4.42,-1.23,1.64,0.34,1
1778,0.25,8.56,-4.5,-1.96,1.34,0.28,1
1803,0.16,8.7,-4.44,-3.49,0.54,1.62,1
1828,0.05,8.68,-4.25,-4.83,5.12,4.36,1
1853,0.29,8.8,-4.26,-5.44,8.41,6.13,1
1878,0.37,9.16,-4.11,-7.51,5.79,9.85,1
1902,0.71,9.34,-4.18,-12.76,12.68,17.11,1
1927,1.66,9.45,-4.41,-21.6,20.91,23.33,1
1951,2.19,9.25,-4.14,-29.59,25.91,21.68,1
1976,2.64,8.98,-3.59,-30.26,30,12.23,1
2001,2.41,8.86,-3.17,-25.5,28.47,0.4,1
2026,2.08,8.75,-3.1,-20.38,35.12,-8.99,1
2051,1.85,8.69,-2.95,-14.4,33.11,-14.72,1
2075,1.35,8.61,-2.55,-8,23.71,-17.59,1
2100,1.17,8.68,-2.4,2.18,25.61,-18.87,1
2125,1.37,8.53,-2.71,10.66,26.03,-19.78,1
2149,1.58,8.38,-2.85,18.71,25.85,-23.01,1
2175,1.41,8.19,-2.97,26.39,13.9,-28.81,1
2199,0.94,8,-2.74,32.3,4.14,-33.2,1
2224,0.61,7.87,-2.28,35.05,22.74,-33.14,1
2248,0.76,7.67,-2.55,41.51,47.01,-31.25,1
2273,0.9,7.37,-2.97,49.01,32.68,-30.51,1
2299,0.77,7.13,-3.17,57.24,25.85,-31,1
2323,0.61,6.83,-3.09,62.73,55.85,-29.78,1
2348,1,6.31,-4.21,69.93,86.03,-29.17,1
2372,0.85,6.06,-5.56,79.86,59.26,-33.26,1
2397,0.24,5.15,-7.58,82.73,56.09,-36,1
2421,-0.72,5.14,-9.16,72.36,51.58,-29.84,1
2447,-1.55,5.22,-10.7,41.94,51.64,-20.15,1
2472,-1.1,4.45,-11.89,8.77,75.91,-13.01,1
2496,-1.19,5.23,-12.22,-14.34,64.14,-10.45,1
2521,-1.89,6.68,-11.99,-39.16,-3.91,-0.21,1
2546,-2.74,6.69,-11.45,-65.38,-13.6,16.38,1
2571,-1.8,6.38,-11.43,-92.82,37.98,26.07,1
2596,-0.82,7.45,-10.97,-115.13,18.04,20.28,1
2620,-1.49,8.42,-8.68,-131.54,-59.09,22.96,1
2646,-2.75,8.71,-6.75,-140.5,-54.64,41.25,1
2670,-1.9,9.95,-4.83,-146.78,-11.16,58.45,1
2695,-0.31,10.69,-3.23,-154.22,-34.76,70.03,1
2719,0.98,10.51,-0.82,-153.79,-35.25,81.07,1
2745,2.26,11.09,1.16,-139.1,-18.48,76.68,1
2770,3.21,11.91,3.23,-119.71,-56.1,68.14,1
2794,3.72,10.74,4.45,-105.19,-67.26,60.22,1
2820,3.76,10.09,5.11,-86.9,-34.39,47.17,1
2844,3.14,10.92,5.84,-64.28,-37.5,50.77,1
2869,5.39,10.33,5.68,-43.73,-61.04,54.18,1
2894,5.98,9.52,6.22,-21.9,-78.17,40.28,1
2919,4.96,9.16,6.4,-1.54,-66.28,24.55,1
2944,3.75,8.81,5.91,11.33,-30.31,24.73,1
2968,4.03,8.29,5.38,27.61,-27.26,32.23,1
2993,4.06,7.46,5.67,53.71,-46.22,39.49,1
3017,4.47,6.54,5.63,82.43,-32.5,50.4,1
3043,5.82,5.67,4.56,99.62,8.96,61.31,1
3068,7.89,4.14,2.8,113.16,49.93,65.1,1
3092,9.46,3.54,1.27,114.32,74.51,58.02,1
3117,10.72,3.7,0.67,119.32,78.9,39.61,1
3141,11.85,2.91,0.05,133.04,44.63,11.99,1
3167,11.62,2.41,-1.15,142.67,49.32,-16.55,1
3192,11.26,2.39,-3.16,146.39,55.97,-44.35,1
3216,10.2,2.07,-4.5,143.95,29.51,-69.9,1
3242,8.68,2.06,-5.33,136.51,25.73,-85.27,1
3266,8.14,2.25,-6.05,124.74,52.62,-97.71,1
3291,7.4,2.04,-6.5,123.52,35.48,-116.85,1
3315,5.7,1.42,-6.16,129.5,-5.55,-134.84,1
3341,3.59,1.13,-7.48,125.47,30.97,-148.81,1
3366,2.85,1.61,-9.49,117.49,69.69,-159.66,1
3390,1.51,0.57,-10.43,114.19,-2.02,-159.41,1
3416,-0.99,1.46,-11.5,104.86,-29.52,-150.33,1
3440,-1.74,2.58,-12.31,75.84,-6.28,-128.01,1
3465,-0.94,3.59,-12.5,43.89,-32.69,-107.65,1
3490,-0.28,3.14,-12,17.49,-24.21,-101.61,1
3515,-0.76,3.7,-12.84,-2.88,1.95,-104.54,1
3540,-2.19,4.07,-13.13,-26.41,-33.54,-103.44,1
3564,-3.25,4.65,-13.04,-50.38,-61.41,-94.66,1
3589,-5.44,6.07,-10.93,-86.35,-51.83,-73.5,1
3614,-4.8,6.33,-9.42,-106.66,4.32,-55.15,1
3639,-4.44,6.02,-8.84,-108,-22.99,-39.23,1
3664,-4.82,5.12,-8.56,-96.41,-82.99,-30.57,1
3688,-6.92,6.67,-7.13,-95.74,-84.88,-14.78,1
3714,-8.58,8.12,-6.19,-95.68,-75.31,12.6,1
3738,-8.62,9.13,-5.63,-83.85,-105.37,58.75,1
3763,-7.61,9.31,-4.52,-77.76,-147.14,99.97,1
3787,-6.21,9.58,-2.68,-86.9,-108.6,133.39,1
3813,-2.53,9.63,-1.8,-91.29,-83.42,151.5,1
3838,0.43,9.08,-0.36,-95.26,-131.22,140.34,1
3862,2.03,9.94,1.44,-94.34,-101.65,114.97,1
3888,2.6,11.2,2.39,-71.9,-70.74,95.22,1
3912,2.98,11.01,2.72,-45.56,-126.04,71.62,1
3937,2.15,11.38,2.68,-35.32,-107.93,60.7,1
3962,2.14,11.05,2.06,-32.39,-69.03,59.67,1
3987,1.73,10.88,2.66,-36.78,-73.05,54.91,1
4012,1.46,10.91,3.45,-35.93,-42.63,58.75,1
4036,2.34,10.82,4.01,-29.83,-29.03,70.7,1
4061,3.2,10.16,4.18,-5.01,-13.42,75.22,1
4087,3.7,9.38,3.92,20.41,-5.98,76.01,1
4111,5.25,8.71,3.58,39.93,-25.43,78.94,1
4136,5.85,7.09,2.48,53.22,-1.47,65.95,1
4160,5.98,6.68,1.2,60.17,61.09,54.3,1
4185,5.18,6.67,1.94,77.43,12.74,64.06,1
4209,6.21,5.86,1.93,105.41,18.65,74.73,1
4235,7.61,4.53,-0.15,122.67,69.63,72.11,1
4260,9.06,3.88,-2.13,130.41,51.52,62.53,1
4284,9.9,3.86,-3.24,128.95,32.74,41.92,1
4309,9.88,3.58,-3.61,126.33,50.3,16.32,1
4334,10.61,3.79,-5.42,114.99,105.54,-0.76,1
4359,11.5,3.52,-6.63,103.46,60.85,-24.48,1
4383,11.69,2.97,-6.97,96.02,20.48,-64.35,1
4408,10.16,3.44,-7.16,83.77,47.13,-96.37,1
4434,8.52,3.78,-7.19,71.27,37.74,-116.37,1
4458,7.03,3.78,-6.96,62.18,10.24,-134.72,1
4483,5.81,3.84,-8.18,51.08,54.51,-148.01,1
4507,4.84,4.47,-8.91,37.55,49.39,-145.63,1
4533,4.55,3.77,-9.89,21.45,39.02,-150.27,1
4558,3.78,3.03,-11.79,0.72,99.81,-168.44,1
4582,2.19,2.35,-12.1,-13.49,60.12,-179.23,1
4607,-0.99,2.76,-11.12,-25.56,19.02,-176.67,1
4632,-3.09,3.04,-11.45,-36.96,72.25,-171,1
4657,-4.11,3.25,-11.47,-44.46,17.68,-152.04,1
4681,-4.99,4.3,-10.38,-62.45,-46.89,-127.65,1
4707,-5.65,5.68,-8.9,-85.13,0.91,-112.59,1
4732,-5.51,5.19,-8.14,-78.37,-0.92,-103.81,1
4756,-6.24,5.41,-7.47,-63.18,-75.98,-96.49,1
4781,-8.8,7.37,-6.73,-63.55,-132.02,-84.84,1
4806,-10.91,7.04,-5.58,-78.55,-117.26,-56.67,1
4831,-11.11,7.67,-4.37,-77.39,-107.75,-16.31,1
4856,-11.85,9.2,-2.33,-70.74,-168.97,27.66,1
4880,-11.34,9.48,-0.87,-79.58,-157.69,74.42,1
4906,-9.04,9.75,-0.08,-76.6,-125.19,123.39,1
4930,-6.72,9.34,0.58,-71.41,-158.72,162.72,1
4955,-4.48,8.11,1.7,-69.89,-157.14,196.31,1
4980,-1.63,7.03,3.34,-63.37,-132.26,215.52,1
5005,0.08,7.01,5.17,-58.79,-131.04,228.63,1
5030,2.15,6.95,5.77,-55.99,-58.36,253.87,1
5055,5.54,5.98,5.91,-54.28,-33.42,265.4,1
5080,8.52,4.55,7.34,-51.96,-58.3,250.28,1
5104,10.72,6.15,9.02,-29.65,-37.63,216.56,1
5129,12.94,4.9,9.59,9.87,-29.09,167.17,1
5155,13.15,5.43,10.26,56.88,-78.78,119.3,1
5179,14.4,4.96,9.8,110.23,-107.69,66.8,1
5204,13.58,3.81,8.31,148.1,-71.04,11.8,1
5229,13.14,3.18,5.12,176.39,-10,-16.67,1
5254,13.04,2.51,2.74,199.07,-38.78,-43.81,1
5278,12.38,1.7,0.83,221.75,-68.11,-77.53,1
5303,11.33,1,-0.92,239.5,-89.7,-103.44,1
5329,10.36,0.48,-3.11,247.67,-115.67,-131,1
5353,9.8,-0.5,-5.4,242.12,-113.48,-165.39,1
5378,7.77,-1.32,-7.27,231.02,-112.32,-189.48,1
5403,6.69,-1.49,-9.43,207.49,-106.41,-210.51,1
5428,5.02,-2,-12.91,160.35,-62.38,-243.26,1
5454,4.66,-3.29,-15.2,98.4,-10.74,-271.43,1
5478,2.31,-5.3,-15.45,36.33,-42.44,-288.07,1
5503,-1.94,-3.95,-15.65,-27.33,-56.65,-288.5,1
5527,-4.43,-3.93,-15.2,-77.88,-9.82,-273.19,1
5553,-4.55,-4.2,-15,-124.52,-51.47,-253.38,1
5577,-5.49,-4.34,-13.73,-168.79,-72.44,-237.89,1
5602,-7.9,-2.84,-11.16,-213.42,-35.43,-218.32,1
5628,-9.76,-1.08,-9.09,-225.32,13.96,-192.1,1
5652,-8.9,-0.02,-8.43,-214.58,-14.33,-155.94,1
5677,-11.25,0.3,-7.12,-204.83,-93.66,-125.51,1
5702,-13.28,0.92,-4.83,-211.72,-95.06,-88.32,1
5727,-12.91,3.07,-2.01,-199.46,-39.15,-41,1
5752,-15.16,3.82,-2.7,-173.49,-41.1,16.99,1
5777,-14.5,4.61,-1.31,-152.21,-104.94,77.96,1
5802,-13.28,5.19,0.61,-128.24,-113.91,132.53,1
5826,-12.14,5.63,1.48,-101.9,-105.98,181.62,1
5852,-9.91,6.13,1.84,-81.29,-89.03,216.62,1
5876,-7.3,5.91,2.43,-70.01,-110.73,238.93,1
5901,-5.24,5.42,3.18,-65.93,-121.47,258.69,1
5927,-3.82,5.21,4.18,-58.91,-97.32,286.56,1
5951,-2.55,5.09,5.34,-59.1,-70.06,314.6,1
5976,1.15,3.18,5.73,-61.23,-13.85,319.79,1
6000,3.21,3.34,6.95,-55.13,-45.86,314.97,1
6026,6.5,3.09,8.16,-30.44,-90.13,296.07,1
6051,9.21,3.04,9.74,5.11,-106.41,265.95,1
6075,10.93,4.55,9.47,45.17,-98.6,238.81,1
6101,14.14,3.74,8.68,92.24,-183.78,182.72,1
6125,15.98,3.03,6.98,147.55,-278.17,106.62,1
6150,14.98,4.07,4.26,190.05,-245.25,39.55,1
6175,15.6,3.46,0.16,189.01,-162.44,-29.17,1
6200,15.51,2.5,-2.63,169.5,-119.58,-92.89,1
6225,14.46,1.4,-4.18,154.13,-82.38,-144.29,1
6250,11.79,1.63,-4.98,142.91,-58.17,-184.11,1
6275,10.61,1.68,-5.72,131.69,-66.71,-211.37,1
6299,9.84,0.98,-6.14,122,-93.48,-235.51,1
6325,8.4,0.18,-6.47,117.55,-91.22,-264.35,1
6350,6.02,0.64,-7.92,112.43,-60.86,-287.28,1
6374,4.07,0.77,-9.67,96.82,-61.16,-300.57,1
6399,2.53,-0.49,-11.12,73.04,-57.63,-308.19,1
6424,0.44,-1.88,-13.16,36.02,-37.14,-311.49,1
6449,-2.5,-1.68,-13.59,-5.74,-55.74,-303.01,1
6473,-4.72,-1.39,-13.22,-46.23,-61.1,-279.9,1
6499,-5.77,-2.4,-12.93,-85.01,-33.24,-262.83,1
6524,-8.66,-2.34,-11.96,-111.29,-43.78,-233.93,1
6548,-10.71,-1.69,-10.54,-137.33,-61.35,-188.19,1
6574,-10.18,-1.23,-8.76,-152.82,12.8,-144.17,1
6598,-10.31,-1.93,-8.05,-165.19,-24.76,-116.12,1
6623,-11.13,-0.16,-7.21,-167.14,-63.42,-76.98,1
6649,-11.74,1.11,-6.27,-169.52,-38.85,-25.76,1
6673,-12.72,1.43,-5.44,-174.1,-56.77,14.85,1
6698,-12.92,2.25,-3.85,-173.49,-64.33,51.68,1
6723,-12.74,3.47,-2.89,-166.29,-52.5,98.51,1
6748,-11.61,3.8,-2.08,-156.84,-53.3,143.39,1
6772,-10.2,4.77,-0.79,-147.75,-96.53,182.78,1
6798,-9.29,5.51,0.6,-146.17,-84.82,214.3,1
6823,-6.18,4.88,1.43,-149.58,5.36,222.78,1
6847,-3.54,5.66,2.56,-150.07,-7.69,221.01,1
6873,-2.64,5.76,4.59,-144.46,-72.69,225.28,1
6897,-2.23,5.55,6.41,-127.08,-41.65,230.22,1
6922,-1.09,6.34,7.91,-109.58,-39.76,233.75,1
6947,1.95,5.25,9.28,-85.68,-66.65,222.96,1
6972,2.02,5.7,9.72,-43.79,-78.05,212.53,1
6997,2.28,5.88,8.95,-0.56,-119.09,221.98,1
7021,6,5.36,8.85,34.56,-135.06,217.29,1
7046,8.58,5.54,8.38,69.13,-126.34,185.09,1
7071,8.53,5.32,6.56,108.46,-181.4,150.4,1
7096,10.01,6.1,5.18,135.78,-238.66,111.5,1
7121,11.3,6.04,3.7,148.16,-262.5,64.79,1
7146,12.29,4.57,2.12,147.61,-190.67,19.18,1
7171,13.25,5.35,-0.34,148.03,-70.37,-24.72,1
7195,13.62,3.71,-2.97,144.44,-56.77,-70.57,1
7221,11.62,4.89,-3.76,131.51,-71.77,-109.66,1
7246,9.47,4.51,-3.31,117.18,-80.13,-135.27,1
7270,8.42,4.53,-3.56,113.71,-40.92,-148.56,1
7296,8,4.34,-4.59,116.88,-59.52,-163.99,1
7320,6.14,3.62,-4.73,119.32,-109.52,-182.28,1
7345,4,3.76,-5.09,120.11,-88.91,-190.45,1
7370,3.36,3.74,-6.46,115.29,-60.98,-198.01,1
7395,1.96,2.58,-7.41,108.28,-76.89,-207.71,1
7420,0.23,2.41,-9.46,91.02,-48.91,-209.48,1
7444,0.28,2.02,-11.61,60.6,-7.08,-208.5,1
7470,-0.65,1.21,-11.88,23.89,-45.86,-211.79,1
7494,-2.72,0.65,-12,-11.84,-31.1,-214.17,1
7519,-1.97,0,-12.19,-42.27,8.84,-217.77,1
7545,-3.63,-1.3,-11.56,-70.62,-21.59,-225.76,1
7569,-6.14,-0.99,-11.25,-101.41,-14.33,-223.13,1
7594,-7.67,-0.68,-10.78,-128.55,12.25,-207.46,1
7619,-8.44,-0.62,-10.26,-149.16,18.17,-191.12,1
7644,-10.46,0.04,-9.89,-160.01,-10.49,-165.57,1
7668,-10.88,0.4,-8.72,-168.18,-35.74,-128.87,1
7694,-12,0.46,-7.86,-182.45,-46.59,-84.11,1
7719,-13.61,1.42,-6.57,-189.89,-41.59,-39.17,1
7743,-14.07,3.12,-4.6,-188.43,-57.38,17.47,1
7769,-13.46,3.36,-3.98,-178.85,-32.26,79.79,1
7793,-11.51,3.37,-3.65,-170.62,-35.61,124.42,1
7818,-10.09,4.01,-2.67,-170.19,-69.58,156.07,1
7844,-8.79,4.81,-1.63,-171.54,-53.11,186.68,1
7868,-8.06,4.87,0.11,-176.35,-52.08,208.57,1
7893,-6.83,5.24,2.26,-181.72,-15,228.51,1
7918,-4.32,5.94,4.45,-178.18,22.74,239.12,1
7943,-1.83,4.68,6.43,-165.56,-18.24,235.46,1
7967,-1.53,5.39,7.91,-140.62,-39.03,231.19,1
7992,0.88,5.76,10.15,-113.49,-25.13,219.18,1
8018,3.78,5.66,11.64,-74.65,16.95,185.28,1
8042,3.94,7.14,12.17,-27.27,-32.2,156.8,1
8067,3.14,7.38,10.94,21.02,-68.6,143.81,1
8092,5.05,6.69,10.23,55.17,-85.8,123.45,1
8117,4.19,6.7,9.36,89.93,-102.93,102.23,1
8142,4.48,6.3,7.65,123.83,-117.56,92.53,1
8167,5.58,6.2,5.62,142.55,-148.23,101.13,1
8192,7.02,6.49,4.15,154.99,-148.72,95.22,1
8216,8.28,6.59,3.01,166.02,-182.08,74.73,1
8241,8.95,5.86,2.01,173.34,-185.25,48.02,1
8266,9.72,5.04,0.99,180.9,-144.09,18.57,1
8291,11,4.77,-1.84,186.88,-84.39,-15.57,1
8316,10.86,4.57,-3.95,177.36,-118.91,-56.31,1
8341,10.2,4.18,-4.62,158.34,-153.17,-98.32,1
8366,8.49,3.58,-4.66,145.35,-96.16,-136.85,1
8390,7.66,3.34,-6.78,135.53,-57.81,-167.77,1
8416,6.22,3.14,-8.07,118.52,-85.31,-193.8,1
8441,3.32,1.76,-8.23,97.73,-106.04,-208.32,1
8465,1.82,2.73,-10.5,71.63,-1.59,-212.77,1
8490,0.66,1.7,-10.74,48.1,-58.36,-214.78,1
8515,-0.79,1.77,-11.13,18.52,-67.93,-210.33,1
8540,-1.56,0.44,-12.1,-12.39,-16.65,-210.02,1
8564,-3.86,1.33,-11.94,-43.85,-26.83,-202.59,1
8590,-3.7,1.34,-12.09,-75.19,-31.1,-188.01,1
8615,-3.84,1.03,-11.87,-105.68,-40.55,-183.99,1
8639,-4.85,0.76,-11.96,-143.67,-14.27,-183.01,1
8665,-5.32,0.49,-10.66,-173.06,-2.63,-181.3,1
8689,-6.64,0.63,-9.21,-192.14,-42.75,-170.39,1
8714,-8.25,1.16,-7.89,-208,-35.74,-155.88,1
8740,-9.85,1.76,-6.68,-220.92,-45.13,-137.22,1
8764,-11.58,2.55,-5.39,-228.06,-33.24,-109.05,1
8789,-12.1,2.39,-3.67,-218.73,-45.19,-70.51,1
8814,-13.87,3.25,-1.38,-200.74,-97.81,-21.86,1
8839,-14.91,4.12,0.41,-173.36,-76.22,33.21,1
8863,-13.77,5.07,1.81,-143.06,-72.26,91.92,1
8889,-12.62,5.07,2.37,-113.85,-79.33,142.17,1
8914,-10.81,5.05,2.71,-95.13,-80.86,173.2,1
8938,-8.66,4.97,3.21,-83.12,-88.54,195.95,1
8963,-6.84,4.87,3.36,-68.61,-76.77,215.09,1
8988,-5.77,5.16,4.03,-70.13,-82.02,230.03,1
9013,-3.06,4.42,4.9,-89.89,-12.93,243.51,1
9038,-2,4.08,5.8,-96.9,5.79,244.24,1
9062,-1.57,3.98,7.34,-91.35,-61.95,253.63,1
9088,0.1,3.62,9.26,-86.66,-35.49,257.04,1
9112,3.63,3.07,10.96,-72.76,38.59,234.06,1
9137,3.35,4.57,12.11,-36.6,-28.36,224.79,1
9161,5.45,4.53,12.23,19.56,-128.05,216.01,1
9187,7.04,4.71,11.1,70.66,-135.55,186.86,1
9212,8.49,2.87,9.34,103.52,-109.39,152.29,1
9236,8.74,5.02,6.28,143.58,-122.93,115.09,1
9262,11.5,4.74,5.42,179.8,-260.55,75.77,1
9286,10.53,4.37,3.47,205.05,-286.77,32.84,1
9311,11.13,3.1,2,216.51,-221.77,-6.37,1
9337,10.46,4.18,-0.29,216.88,-157.93,-48.87,1
9361,10,4.95,-2.93,207.85,-115.19,-84.23,1
9386,9.12,3.65,-4.55,187.06,-149.94,-114.78,1
9411,7.53,3.95,-5.93,164.07,-137.44,-143.44,1
9436,7.55,3.62,-7.05,147.73,-117.56,-171.49,1
9460,6.29,3.02,-7.74,126.63,-157.14,-199.66,1
9486,5.52,1.91,-8.75,103.65,-105.19,-226.43,1
9511,3.67,1.23,-10.23,81.33,-61.04,-251.67,1
9535,2.91,1.22,-11.64,56.21,-77.2,-269.47,1
9561,1.42,-0.39,-12.51,19.56,-84.58,-284.17,1
9585,-1.74,-1.21,-13.34,-28.37,-57.99,-291,1
9610,-3.85,-1.1,-13.71,-76.6,-37.56,-285.51,1
9636,-5.78,-1.63,-12.4,-118.12,-57.26,-269.23,1
9660,-8.11,-1.53,-11.6,-150.13,-21.53,-248.07,1
9686,-9.94,-0.69,-10.88,-165.13,-17.08,-218.07,1
9710,-9.37,-1.39,-10.19,-181.96,-38.11,-180.39,1
9735,-11.57,-0.85,-8.15,-205.56,-115.13,-132.1,1
9760,-14.12,0.22,-6.56,-220.56,-50.86,-82.83,1
9785,-12.62,1.03,-5.09,-212.39,-38.85,-38.56,1
9810,-12.84,2.2,-3.42,-193.73,-87.14,14.12,1
9835,-12.36,2.43,-2.16,-179.64,-87.69,54.42,1
9860,-11.91,3.42,-1.11,-171.47,-68.97,85.7,1
9884,-11.44,4.36,-0.07,-164.22,-64.64,119.67,1
9910,-10.99,4.33,0.95,-163.55,-33.24,159.36,1
9935,-12.39,5.39,1.83,-159.83,6.34,200.34,1
9959,-10.04,5.08,3.88,-158.3,-23.6,249.06,1
9985,-7.13,2.48,5.46,-164.28,19.57,281.01,1
10009,-4.83,2.72,7.72,-155.74,94.08,287.17,1
10034,-1.37,2.17,10.31,-113.85,-2.63,283.93,1
10059,1.43,2.17,11.79,-62.27,-40.98,260.82,1
10084,1.95,4.31,12.42,-1.41,-64.88,227.59,1
10109,2.49,5.22,11.19,57.61,-147.62,202.78,1
10134,3.22,5.98,10.5,94.13,-183.42,185.4,1
10159,3.92,5.78,9.58,120.41,-133.91,173.14,1
10183,6.56,6.24,6.85,138.95,-73.91,157.72,1
10209,9.36,6.44,4.36,155.17,-168.78,125.64,1
10234,9.54,5.53,2.94,169.13,-273.11,78.51,1
10258,9.05,6.03,1.11,172.79,-141.95,38.14,1
10284,9.82,6.26,-0.73,169.44,-152.56,9.55,1
10308,10,5.56,-1.93,162.79,-163.23,-25.57,1
10333,9.25,5.51,-2.42,160.17,-127.93,-63.38,1
10359,9.13,4.92,-3.77,163.58,-106.71,-98.07,1
10383,8.89,4.23,-5.16,168.89,-141.89,-136.24,1
10409,6.59,3.22,-6.89,166.51,-162.08,-172.16,1
10433,4.81,2.52,-9.01,151.57,-125.55,-195.45,1
10458,5.1,2.37,-11.19,127.61,-153.17,-218.19,1
10483,3.67,0.67,-11.6,86.21,-215.25,-254.05,1
10508,1.8,-1.6,-13.73,25.17,-78.72,-288.44,1
10533,-0.58,-2.6,-14.1,-21.41,-52.14,-305.69,1
10558,-4.91,-2.4,-12.3,-64.46,-135.19,-298.13,1
10583,-8.75,-2.8,-10.94,-103.55,-91.34,-271,1
10608,-10.11,-2.61,-10.21,-127.63,-33.3,-233.56,1
10633,-12.21,-2.27,-9.33,-136.9,-70.06,-191.98,1
10659,-13.12,-1.44,-8.92,-143.91,-65.67,-139.96,1
10683,-14.44,-0.9,-8.58,-156.84,-67.56,-85.76,1
10708,-13.53,-0.65,-7.91,-174.34,-43.91,-36.79,1
10733,-13.12,0.32,-5.95,-179.46,-61.22,9.36,1
10758,-12.13,0.88,-5.26,-181.47,-40.86,45.28,1
10782,-11.49,1.74,-4.89,-180.01,-33.6,73.69,1
10808,-10.62,2.92,-3.59,-177.14,-79.7,102.9,1
10833,-9.89,3.28,-2.34,-174.89,-76.77,127.72,1
10857,-9.61,3.95,-0.64,-173.73,-57.63,148.14,1
10883,-9.51,5.05,0.45,-170.44,-64.7,172.59,1
10907,-7.97,4.1,1.66,-164.52,-85.61,209.12,1
10932,-7.07,4.44,3.18,-156.9,-83.97,233.63,1
10958,-5.69,3.79,4.43,-154.95,-37.69,255.89,1
10982,-4.03,2.9,6.36,-158.55,-9.94,274.06,1
11007,-1.89,3.46,7.42,-148.24,31.58,275.95,1
11032,1.3,3.28,8.48,-123.85,-7.2,260.95,1
11057,2.85,2.36,9.51,-100.62,-70.55,238.45,1
11081,2.87,4.65,10.78,-66.11,-48.36,216.8,1
11107,5.54,4.72,11.55,-24.83,-43.05,192.17,1
11132,7.32,4.61,11.34,14.93,-62.02,157.59,1
11156,8.48,5.43,11.7,53.58,-99.64,119.97,1
11182,9.42,6.03,11.1,95.9,-128.36,80.4,1
11206,9.17,5.53,9.39,125.29,-126.04,43.51,1
11231,8.68,5.84,8.59,151.45,-82.26,18.82,1
11257,8.27,6.11,6.35,175.72,-70.25,-0.27,1
11281,8.41,5.45,3.94,187.18,-127.44,-27.04,1
11306,7.26,5.14,2.8,191.81,-149.09,-50.15,1
11331,6.59,5,1.63,200.47,-111.83,-60.7,1
11356,7.26,4.94,0.03,210.9,-108.42,-72.83,1
11380,7.74,4.44,-1.62,218.95,-127.99,-99.23,1
11406,7.05,3.42,-3.87,217.3,-129.52,-131.06,1
11431,5.94,3.06,-5.42,208.58,-109.21,-157.16,1
11455,4.5,3.04,-6.87,198.71,-103.42,-175.76,1
11481,2.75,1.81,-8.2,184.19,-128.36,-187.46,1
11505,1.34,1.24,-11.12,150.6,-104.7,-204.17,1
11531,1.88,0.01,-14.12,99.5,-25.67,-224.78,1
11556,-0.61,0.07,-14.27,51.45,-52.75,-235.02,1
11580,-3.16,0.03,-14.03,3.59,-67.5,-231.3,1
11606,-3.42,-0.42,-13.6,-39.89,-33.91,-226.3,1
11630,-2.85,-1.16,-13.63,-76.6,-55.98,-225.08,1
11655,-5.64,-1.19,-12.4,-113.12,-73.42,-221,1
11680,-9.02,-0.18,-11.09,-148.18,-15.61,-203.62,1
11705,-10.28,-0.63,-10.12,-166.05,8.17,-174.6,1
11730,-11.76,0.45,-9.77,-169.22,-23.11,-131.24,1
11755,-12.98,0.8,-9.04,-180.68,-68.42,-80.82,1
11780,-13.59,0.88,-6.79,-197.45,-62.08,-28.38,1
11805,-12.7,1.47,-4.8,-197.75,-32.75,16.25,1
11830,-12.36,2.53,-2.97,-181.72,-50.8,46.19,1
11855,-11.79,3.48,-2.14,-161.78,-61.95,76.74,1
11880,-10.76,3.69,-0.86,-150.93,-68.48,103.63,1
11905,-10.54,4.36,-0.36,-145.25,-70.98,125.22,1
11929,-9.02,4.39,-0.18,-156.35,-46.28,150.46,1
11955,-7.6,4.78,0.41,-176.35,-9.94,172.96,1
11979,-6.43,4.19,1.72,-196.17,5.61,186.8,1
12004,-5.3,3.9,3.39,-207.57,2.43,197.78,1
12030,-4.96,4.09,5.23,-213.91,3.84,212.53,1
12054,-3.7,3.66,7.34,-211.35,51.03,223.94,1
12079,-0.91,4.03,9.83,-194.83,88.47,221.92,1
12104,0.51,4.87,11.92,-156.05,14.08,213.26,1
12129,3.8,5.4,13.82,-101.11,-32.14,187.9,1
12154,4.86,5.91,14.83,-39.16,-44.27,154.18,1
12179,5.51,6.34,14.5,19.68,-51.83,124.3,1
12204,5.25,7.21,13.67,71.27,-80.25,101.5,1
12228,6.22,6.63,11.7,110.54,-108.05,70.77,1
12254,6.05,6.29,9.91,141.69,-118.36,43.45,1
12279,5.54,6.48,8.56,171.69,-113.3,28.21,1
12303,5.5,6.17,6.74,199.62,-126.28,16.5,1
12329,5.84,5.38,5.1,222.97,-144.82,1.62,1
12353,5.05,5.34,3.18,241.33,-137.87,-10.15,1
12378,6.22,5.19,0.52,255.29,-120.25,-16.43,1
12403,7.6,4.67,-2.5,258.83,-174.51,-41.73,1
12428,7.59,4.14,-5.16,245.29,-194.82,-84.35,1
12453,6.76,3.77,-6.91,218.77,-159.94,-123.74,1
12478,4.95,3.86,-7.35,196.27,-172.93,-153.62,1
12503,3.47,3.3,-7.98,174.32,-193.36,-184.9,1
12528,1.96,2.07,-10.28,136.69,-124.58,-214.48,1
12553,0.91,1.83,-12.35,85.9,-49.39,-234.72,1
12578,-1.42,1.6,-12.79,35.6,-41.59,-241.49,1
12603,-2.9,0.68,-13.2,-10.81,-43.48,-242.4,1
12628,-5.23,-0.04,-12.91,-57.39,-34.7,-234.11,1
12652,-7.78,-0.12,-11.82,-92.69,-33.72,-209.72,1
12678,-9.15,0.01,-11.32,-116.72,-35.13,-179.9,1
12702,-10.99,0.19,-10.83,-142.82,-22.69,-151.12,1
12728,-11.95,0.3,-9.34,-162.39,-15.74,-111.98,1
12753,-12.52,0.85,-7.47,-171.78,-51.71,-62.34,1
12777,-13.16,1.58,-6.49,-173.43,-50.92,-13.68,1
12803,-13.22,2.56,-5.09,-170.93,-45.31,30.03,1
12827,-11.55,3.51,-3.83,-167.27,-52.81,67.11,1
12852,-10.49,4.09,-2.86,-163.43,-47.02,90.58,1
12878,-9.39,4.96,-1.66,-157.63,-45.8,107.05,1
12902,-8.31,5.97,-0.69,-151.72,-50.67,123.81,1
12927,-7.23,6.39,0.09,-154.65,-27.57,136.5,1
12952,-5.96,6.26,0.9,-165.38,-8.78,142.11,1
12977,-5.15,6.39,1.73,-176.66,-10.55,145.16,1
13001,-3.97,6.06,2.33,-192.02,20.24,145.22,1
13027,-2.73,4.89,3.44,-210.5,36.95,136.74,1
13052,-1.74,4.84,5.3,-222.75,48.78,121.13,1
13076,-2.1,5.09,7.19,-217.57,44.39,104.97,1
13102,-2.3,5.47,9.38,-196.17,25.73,100.95,1
13126,-2.44,6.74,11.36,-158.18,1.52,106.99,1
13151,-2.25,6.93,13.17,-102.57,-2.02,120.16,1
13177,-1.49,6.29,13.25,-38.67,-35.31,128.75,1
13201,-1.05,5.75,13.03,17.91,-96.71,133.2,1
13226,0.02,5.27,12.94,70.78,-108.84,132.29,1
13251,1.79,5.24,11.65,121.21,-101.41,121.86,1
13276,2.78,5.17,9.94,159.92,-129.21,110.7,1
13301,3.13,5.03,8.6,192.91,-180.37,98.57,1
13326,3.83,5.04,6.87,219.13,-182.62,87.47,1
13351,5.74,4.82,4.62,237.91,-167.75,69.67,1
13376,6.87,4.43,1.96,250.59,-185.43,41.31,1
13401,7.76,4.49,-0.55,254.01,-202.2,4.61,1
13425,8.15,4.21,-3.15,245.17,-206.47,-34.29,1
13451,8.01,4.18,-5.44,227.67,-191.04,-70.09,1
13476,7.87,4.39,-7.52,204.56,-196.83,-109.42,1
13500,7.43,4.22,-7.89,176.51,-223.97,-156.31,1
13526,5.45,2.47,-8.39,144.8,-190.06,-204.9,1
13550,3.07,2.8,-10.27,101.88,-64.21,-237.4,1
13576,1.55,2.03,-11.16,59.8,-9.03,-259.29,1
13600,-0.56,1.78,-10.73,25.66,-18.3,-269.78,1
13625,-2.34,0.56,-11.24,-11.11,-34.21,-270.45,1
13651,-4.03,0.96,-10.93,-41.54,20.85,-264.78,1
13675,-5.37,0.52,-10.54,-58.06,-3.05,-255.57,1
13700,-7.43,0.28,-10.69,-78.49,8.11,-238.68,1
13724,-8.11,-0.79,-11.55,-99.77,45.54,-221.79,1
13750,-9.99,-0.5,-10.74,-115.74,23.71,-202.28,1
13775,-11.9,-0.19,-10.13,-137.51,-41.65,-160.45,1
13800,-13.25,0.83,-9.32,-159.89,-35.37,-102.59,1
13825,-13.65,1.47,-8.1,-175.5,-42.93,-44.29,1
13849,-13.53,2.07,-6.55,-183.79,-56.35,8.82,1
13875,-12.12,2.5,-5.88,-186.17,-37.38,49.18,1
13899,-11.25,3.09,-4.52,-187.82,-53.11,72.47,1
13924,-10.57,4.27,-2.9,-187.69,-63.3,91.19,1
13950,-9.52,5.12,-1.79,-182.88,-53.66,112.05,1
13974,-8.59,5.82,-1.12,-176.9,-31.83,126.5,1
13999,-6.56,6.49,-0.52,-178.73,17.8,132.11,1
14024,-4.94,6.47,0.52,-183.97,0.36,129.24,1
14049,-4.67,6.54,2.07,-176.78,-20.86,121.19,1
14074,-4.24,6.18,3.76,-159.46,-38.11,121.07,1
14099,-4.36,7.72,4.54,-141.41,-52.99,124.79,1
14124,-4.51,6.8,5.94,-128.79,-53.24,129.42,1
14148,-4.21,6.73,7.33,-113.24,-41.83,139,1
14174,-2.88,6.08,8.46,-94.95,-25.43,143.81,1
14199,-1.61,6.26,9.21,-71.23,-49.03,136.13,1
14223,-1.73,6.65,10.17,-44.4,-65.43,126.98,1
14249,-1.89,6.95,10.55,-20.74,-33.6,134.36,1
14273,-0.41,7.32,10.92,7.67,-17.08,151.19,1
14298,1.68,6.33,10.37,49.07,-56.77,149.67,1
14323,3.01,5.98,9.79,90.9,-125.06,130.58,1
14348,3.3,6.03,9.5,133.04,-168.42,108.39,1
14373,4.33,6.23,8.02,172.97,-190.06,91.5,1
14398,5.22,5.68,6.01,205.96,-195.25,73.63,1
14423,5.94,5.75,4.12,229.19,-213.42,51.07,1
14447,6.35,5.21,1.7,240.47,-222.62,15.22,1
14473,7.3,4.26,-0.62,239.68,-195.12,-23.32,1
14498,7.15,4.38,-2.61,235.35,-161.59,-50.94,1
14522,6.97,4.14,-4.65,226.94,-152.56,-83.74,1
14548,6.43,3.26,-6.2,213.95,-174.09,-123.74,1
14572,3.97,2.35,-7.2,195.53,-189.7,-152.52,1
14598,3.41,1.92,-8.97,172.49,-105.19,-173.8,1
14622,3.36,0.98,-10.82,145.66,-84.39,-201.06,1
14647,1.72,0.16,-12.43,107.67,-66.35,-231.06,1
14673,0.61,-0.84,-14.18,55.23,30.24,-251.43,1
14697,-1.35,-0.88,-14.38,13.4,30.18,-260.33,1
14722,-3.36,-1.28,-14.04,-25.07,-27.75,-255.15,1
14747,-5.56,-0.81,-14.22,-66.84,-30.86,-232.83,1
14772,-6.96,-1.33,-13.58,-107.51,-2.81,-207.95,1
14797,-8.35,-0.84,-12.39,-134.28,-5.31,-179.41,1
14822,-9.04,-0.11,-11.3,-150.32,-20.67,-141.49,1
14847,-9.74,0.68,-11.29,-168.55,-8.48,-104.42,1
14872,-9.04,0.84,-10.8,-194.77,14.75,-86.73,1
14897,-7.14,0.67,-9.11,-216.72,-5.49,-79.96,1
14921,-8.58,2.03,-7.67,-229.46,-22.02,-73.56,1
14946,-8.71,2.91,-6.2,-228.24,-13.85,-69.48,1
14972,-9.62,2.7,-4.44,-220.5,-81.59,-46.55,1
14996,-10.78,4.19,-2.28,-206.84,-112.02,-6.92,1
15021,-12.36,5.24,-0.83,-186.41,-73.72,36.07,1
15046,-12.42,5.04,0.02,-171.11,-120.86,82.78,1
15071,-10.43,5.11,1.33,-164.1,-111.53,124.91,1
15097,-9,5.66,2.39,-155.01,-51.59,146.01,1
15121,-7.37,5.18,3.1,-154.04,-54.21,157.23,1
15146,-7.13,5.5,3.81,-150.32,-25.31,174.18,1
15171,-6.34,5.24,4.82,-146.47,-17.02,187.59,1
15196,-4.9,4.58,5.72,-144.34,-3.85,198.63,1
15220,-3.76,4.35,6.97,-136.35,-3.05,209.85,1
15246,-2.48,3.78,8.19,-126.6,-22.5,213.69,1
15271,-1.16,4.06,8.88,-109.1,-0.86,208.39,1
15295,0.6,4.14,9.91,-86.29,7.07,204.12,1
15320,1.78,4.62,11.12,-56.96,-31.47,198.87,1
15345,4.01,4.63,12.18,-16.54,-32.5,180.76,1
15370,5.64,5.01,12.05,34.99,-48.66,146.86,1
15395,5.33,5.24,11.63,86.69,-116.16,119.85,1
15420,5.85,5.82,11.37,142.61,-176.83,94.06,1
15445,7.02,5.48,9.22,189.56,-185.37,61.07,1
15470,6.85,4.4,6.91,223.16,-219.21,31.38,1
15495,5.89,5.02,4.73,247.61,-223.84,10.58,1
15519,5.8,4.75,2.46,265.17,-223.84,-13.32,1
15545,5.23,4.58,0.42,270.78,-239.64,-36.92,1
15570,6.24,3.81,-2.12,269.68,-231.34,-57.77,1
15594,7.64,2.87,-5.74,254.86,-172.14,-88.13,1
15620,9.48,2.12,-8.95,229.74,-124.21,-132.28,1
15644,7.75,1.46,-10.35,190.23,-112.99,-178.68,1
15669,7.87,-0.1,-14.41,128.4,4.32,-223.07,1
15695,7.1,0.1,-16.55,74.5,44.02,-263.74,1
15719,2.71,-0.11,-15,13.22,-77.32,-287.1,1
15744,0.51,-0.22,-14.22,-49.22,35.54,-285.27,1
15769,-0.22,-0.42,-12.69,-79.65,-35.06,-286.73,1
15794,-3.17,0.77,-11.27,-107.45,-35.98,-273.26,1
15819,-5.33,1.07,-10.3,-118.18,-15.92,-249.17,1
15844,-7.05,1.03,-9.81,-124.65,-7.63,-230.33,1
15869,-8.82,1.14,-8.8,-121.84,-45.74,-197.16,1
15894,-11.4,1.78,-8.29,-121.6,-75.31,-143.13,1
15919,-12.63,1.66,-8.62,-127.21,-36.89,-94.05,1
15943,-13.75,2.64,-7.53,-136.96,-53.05,-49.23,1
15969,-12.72,3.29,-6.16,-142.27,-78.72,6.5,1
15994,-11.45,3.39,-5.49,-145.19,-57.75,54.3,1
16018,-9.69,3.66,-4.93,-149.34,-65.8,77.05,1
16044,-8.07,4.62,-3.84,-147.08,-108.3,88.51,1
16068,-7.79,5.38,-1.95,-146.54,-189.58,101.01,1
16093,-8.07,5.45,-0.07,-153.61,-210.06,128.27,1
16119,-7.28,6.03,1.85,-149.22,-148.05,154,1
16143,-6.07,6.36,4.34,-132.39,-214.94,175.28,1
16169,-5.65,6.24,5.78,-106.96,-235.25,202.35,1
16193,-3.68,5.7,6.03,-87.39,-150.49,223.14,1
16218,-0.6,5.07,5.81,-83.73,-77.14,225.83,1
16243,0.83,4.86,6.75,-69.58,-128.17,220.09,1
16268,2.09,5.25,8.25,-43.79,-110.43,213.57,1
16293,4.83,rbrbjrbrb?r?bj,,,,,
16318,7.99,6.78,8.68,-7.57,55.85,155.16,0
16343,9.04,7.25,9.16,23.89,11.76,108.63,0
16367,9.67,7.22,9.03,52.3,-74.21,54.79,0
16392,8.54,7.16,9.62,78.89,-37.87,7.78,0
16418,5.93,7.4,9.48,113.77,-16.28,-11.18,0
16442,3.8,7.59,8.34,148.16,-45.43,-9.42,0
16467,3.49,7.05,6.71,176.02,-36.71,-1.43,0
16491,3.04,6.51,5.62,196.39,-43.85,6.01,0
16517,2.66,6.34,4.39,214.19,-36.1,15.22,0
16541,2.87,5.77,2.59,231.02,-40.8,26.07,0
16566,3.07,4.83,1.42,246.08,-89.52,38.51,0
16591,4.59,3.86,-0.49,267.12,-88.24,43.39,0
16616,5.73,2.96,-3,276.94,-91.77,30.4,0
16641,8.45,2.49,-6.04,273.64,-126.47,-1.86,0
16665,8.72,1.27,-8.84,246.39,-142.32,-54.29,0
16691,8.89,0.84,-12.37,186.08,-59.52,-111.06,0
16715,8.88,0.63,-14.8,111.33,55.85,-158.32,0
16740,8.49,1.55,-14.19,48.28,53.17,-200.33,0
16766,6.39,0.59,-12.45,7.37,40.48,-241.12,0
16790,4.27,0.97,-12.74,-17.88,67.37,-262.95,0
16815,2.46,0.87,-11.28,-39.65,11.4,-267.89,0
16840,0.18,1.44,-10.49,-63.91,-46.89,-262.34,0
16865,-1.09,1.91,-10.61,-77.02,44.08,-260.94,0
16890,-2.97,2.17,-9.99,-80.74,7.07,-251.37,0
16915,-5.57,2.41,-9.76,-95.07,-32.99,-226.73,0
16940,-8.22,3.04,-9.48,-105.8,23.29,-197.83,0
16964,-8.68,3.19,-9.31,-108.18,32.56,-159.17,0
16990,-9.35,3.53,-8.4,-114.46,-40.13,-111.67,0
17015,-10.73,4.06,-7.85,-120.56,-44.88,-71.43,0
17039,-9.69,4.55,-7.78,-120.86,-13.97,-37.22,0
17065,-8.3,4.68,-6.87,-126.54,-63.05,-8.14,0
17089,-8.19,4.73,-5.4,-128.36,-79.58,12.35,0
17114,-8.88,6.03,-3.92,-125.8,-83.3,24.85,0
17139,-9.07,6.69,-3.1,-127.33,-85.49,47.35,0
17164,-9.27,7.29,-1.78,-126.84,-77.14,74.55,0
17189,-8.73,8.1,-0.52,-117.08,-75.8,97.17,0
17213,-8.52,8.69,0.44,-113.67,-114.88,119,0
17239,-8.01,8.15,1.01,-122.57,-109.82,147.35,0
17263,-7.61,7.68,1.72,-133.73,-37.99,177.35,0
17288,-5.15,6.87,2.89,-145.44,-8.85,201.56,0
17314,-3.53,5.6,4.4,-149.65,-42.26,219.24,0
17338,-2.73,5,6.24,-138.3,-60.61,233.75,0
17363,-0.48,4.31,8.23,-123,-31.77,239.85,0
17388,2.62,4.83,10.21,-91.47,-2.81,228.39,0
17413,4.41,4.65,10.74,-48.55,-1.77,207.29,0
17437,6.81,5.68,11.9,4.87,-69.58,170.46,0
17463,10.64,6.01,11.54,64.5,-108.72,113.57,0
17488,11.44,6.35,10.59,112.91,-168.23,42.66,0
17513,8.85,6.32,9.74,148.89,-191.71,-10.7,0
17538,6.61,5.64,8.09,172.61,-139.64,-29.78,0
17562,6.31,5.51,5.14,184.68,-78.3,-31.25,0
17588,7.44,5.89,2.28,191.45,-45.86,-38.2,0
17613,7.02,5.65,0.83,192.3,-110.19,-55.57,0
17637,5.83,5.28,0.66,191.81,-137.26,-70.33,0
17663,5.44,4.87,0.12,196.33,-92.69,-77.1,0
17687,6.34,4.48,-2.95,199.62,-43.42,-87.65,0
17712,7.29,3.92,-5.63,189.99,-62.69,-110.09,0
17736,5.75,3.49,-6.69,170.23,#NAME?,-134.96,0
17762,4.12,2.7,-8.52,139.32,-52.02,-154.05,0
17787,5.87,1.98,-11.74,101.63,42.98,-177.89,0
17812,4.68,1.2,-13.57,61.39,5.91,-210.08,0
17837,0.45,1.38,-14.2,13.65,-8.85,-220.94,0
17861,-1.25,1.97,-15.44,-39.89,68.23,-211.55,0
17887,0.4,1.79,-15.72,-98.24,56.09,-214.78,0
17912,-0.1,1.16,-13.61,-152.33,-14.21,-225.21,0
17936,-3.91,1.49,-11.03,-189.71,11.58,-224.48,0
17962,-7.09,1.75,-9.24,-192.27,38.04,-210.21,0
17986,-9.25,2.78,-7.74,-173.79,11.09,-173.68,0
18011,-10.34,2.32,-7.15,-169.1,-21.53,-132.22,0
18036,-12.55,3.65,-6.95,-181.96,17.92,-89.17,0
18061,-12.94,4.3,-4.97,-181.05,-21.28,-35.15,0
18086,-14.29,5.27,-3.2,-168.79,-59.7,32.11,0
18111,-11.2,5.62,-2.91,-153.55,-78.17,74.97,0
18136,-10.21,6.15,-1.74,-146.47,-81.41,105.64,0
18161,-7.96,6.05,-0.24,-147.15,-78.91,127.78,0
18186,-8.5,6.64,1.49,-145.07,-88.54,146.13,0
18211,-8.21,6.69,2.98,-151.6,-18.85,174.73,0
18236,-6.82,6.47,4.53,-160.25,-10.61,196.01,0
18261,-6.06,5.85,6.63,-162.02,-4.09,220.95,0
18285,-4.06,5.25,8.89,-151.72,20.97,241.13,0
18311,-0.12,5.25,10.15,-124.95,41.58,235.03,0
18335,1.17,4.87,11.72,-87.21,-9.39,212.59,0
18360,1.89,4.67,12.93,-35.44,-59.15,199.67,0
18386,4.55,5.69,13.79,24.38,-80.19,186.19,0
18410,6.84,6.03,13.13,80.84,-160.61,154.36,0
18435,9.41,5.82,12.18,137.12,-199.15,103.88,0
18460,9.72,5.94,10.35,184.19,-201.71,53.51,0
18485,9.92,5.69,6.5brʢbjrbrʲbj,,,,
18510,9.04,5.23,3.92,209.31,-204.7,-25.39,0
18535,8.77,4.74,1.84,209.25,-180.8,-50.45,0
18560,9.6,4.39,-0.72,209.68,-123.17,-73.38,0
18584,8.9zbjr?brbjrbjr?bj,,,,,,
18610,8.21,3.36,-3.05,194.01,-142.38,-133.56,0
18634,8.3,2.02,-5.44,184.01,-93.84,-164.05,0
18660,6.34,2.01,-7.5,162.3,-92.14,-191.43,0
18685,4.66,2.16,-7.83,137.06,-95.8,-212.1,0
18709,2.9,1.9,-9.92,99.44,-64.58,-231.61,0
18735,2.36,1.17,-12.22,55.54,-43.54,-245.27,0
18759,0.06,0.74,-12.51,14.44,-36.89,-247.28,0
18784,-2.25,0.62,-12.77,-25.26,10.18,-243.62,0
18810,-2.92,0.5,-14.3,-66.41,35.85,-241.85,0
18834,-2.99,-1.57,-13.22,-96.9,34.93,-237.4,0
18859,-5.16,-0.05,-11.13,-133.73,-25.8,-225.82,0
18884,-8.3,-0.33,-10.9,-173.49,-166.28,-197.89,0
18909,-11.27,0.5,-8.86,-182.08,37.43,-158.2,0
18935,-12.13,0.79,-6.93,-182.51,-42.87,-113.56,0
18959,-13.73,1.9,-5.99,-180.93,-96.77,-51.61,0
18984,-13.8,2.38,-5.23,-172.63,-61.71,-4.9,0
19009,-13.1,3.27,-3.68,-168.91,-82.2,34.79,0
19034,-11.69,4.08,-2.25,-163.73,-99.45,74.24,0
19058,-10.6,4.69,-0.62,-155.62,-62.02,102.59,0
19084,-10,5.81,0.45,-150.38,-42.2,113.02,0
19109,-9.74,6.8,1.94,-143.36,-37.87,133.39,0
19133,-8.1,6.59,2.23,-140.62,-1.59,156.25,0
19159,-5.76,6.03,3.15,-135.99,-10,156.25,0
19183,-6.13,5.99,3.8,-136.66,-57.02,162.84,0
19208,-5.56,5.33,4.73,-145.62,7.19,174.18,0
19234,-4.5,4.92,6.1,-153.79,50.06,179.36,0
19258,-3.96,4.51,8.1,-149.83,8.29,177.72,0
19283,-4.48,4.47,10.46,-133.12,2.92,189,0
19308,-3.46,4.74,12.61,-97.45,22.92,204.55,0
19333,-1.11,4.41,13.09,-40.93,12.07,220.95,0
19357,-0.92,4.49,12.78,11.09,-80.92,232.11,0
19383,0.95,3.84,12.22,65.05,-176.83,237.96,0
19408,2.85,3.12,10.86,116.27,-168.78,231.07,0
19432,5.93,3.54,9.03,153.22,-182.69,212.96,0
19458,9.79,4.09,5.6,180.9,-211.77,164.18,0
19482,9.88,4.29,3.4,189.74,-257.5,116.68,0
19508,10.2,3.66,1.49,181.33,-233.9,73.45,0
19533,12.96,3.34,-0.71,163.64,-87.87,26.86,0
19557,15.59,3.2,-2.67,151.45,-37.99,-25.82,0
19583,14.62,2.91,-2.71,143.77,-164.7,-88.07,0
19607,10.98,3.3,-2.09,139.07,-133.84,-132.89,0
19632,10.56,3.44,-2.94,135.05,-53.36,-162.04,0
19657,12.05,3.18,-5.72,130.9,-98.3,-204.78,0
19682,10.19,2.07,-5.71,125.11,-143.66,-255.39,0
19708,5.29,1.33,-6.13,109.5,-133.91,-284.35,0
19732,4.14,1.34,-9.12,86.57,-16.53,-294.9,0
19757,2.41,0.58,-9.33,69.26,-60.98,-300.33,0
19782,-0.57,-0.08,-8.87,52.49,-52.44,-302.1,0
19807,-2.37,-1.64,-10.18,30.72,-144.21,-293.19,0
19832,-4.43,-0.5,-10.53,2.91,16.95,-267.77,0
19857,-6.17,-0.37,-10.78,-14.52,-64.64,-248.01,0
19882,-8.31,-1.12,-11.43,-48.37,-111.47,-225.51,0
19906,-8.64,-1.26,-12.41,-82.33,-0.25,-196.06,0
19932,-10.38,-0.63,-11.08,-109.16,-69.64,-166.61,0
19956,-12.56,0.5,-10.24,-143.73,-99.7,-126.18,0
19982,-11.83,0.38,-8.92,-171.9,-54.21,-80.15,0
20007,-11.45,0.35,-6.82,-188.43,-94.21,-39.35,0
20031,-11.66,1.52,-5.09,-181.6,-104.03,-13.14,0
20057,-12.63,3.09,-3.03,-166.84,-127.81,14.3,0
20081,-12.43,3.76,-2.08,-162.69,-113.48,51.5,0
20107,-11.82,3.93,-0.45,-151.23,-61.47,82.53,0
20132,-11.44,4.43,0.76,-139.34,-112.32,93.51,0
20156,-11.33,5.23,1.27,-136.54,-101.47,117.47,0
20182,-9.4,4.96,2.14,-148.12,-41.59,142.96,0
20206,-8.81,4.99,3.35,-157.75,-43.36,157.72,0
20231,-9.09,4.67,4.51,-160.25,-34.88,181.01,0
20256,-8.57,4.26,5.89,-164.58,9.45,209.48,0
20281,-5.99,3.71,7.6,-160.32,46.52,222.9,0
20306,-3.34,3.15,9.26,-145.01,15.24,215.58,0
20331,-3.29,3.87,10.7,-115.32,-14.52,205.03,0
20356,-2.44,4.47,11.96,-73.73,-25.67,195.64,0
20380,-1.98,5.22,12.47,-26.35,-42.63,191.25,0
20406,-1.77,4.91,11.88,17.67,-80.25,200.83,0
20431,-0.93,4.76,10.77,60.29,-129.64,214.06,0
20456,0.04,4.3,10.1,101.08,-166.47,222.65,0
20481,2.01,3.37,9.06,131.57,-171.1,220.76,0
20505,2.34,2.87,7.56,164.8,-164.03,223.45,0
20531,5.33,2.84,4.95,193.4,-179.21,224.24,0
20555,9.43,3.78,0.69,200.78,-218.36,185.58,0
20580,12.59,4.35,-2.31,174.56,-206.65,115.22,0
20606,14.68,3.62,-4.04,131.69,-114.82,42.53,0
20630,13.84,4.15,-2.78,99.74,-64.52,-21.98,0
20656,13.51,3.33,-0.82,93.95,-64.7,-72.4,0
20680,13.15,3.8,-0.66,108.4,-27.69,-116.43,0
20705,12.94,3.61,-1.69,125.78,-42.44,-163.07,0
20731,11.01,2.42,-2.96,137.43,-95.61,-206.49,0
20755,8.63,2.43,-4.34,142.3,-111.65,-238.56,0
20780,7.04,2.4,-5.28,137.85,-148.23,-265.45,0
20805,5.41,1.59,-6.15,119.44,-180.73,-291.06,0
20830,2.38,-0.19,-7.24,89.07,-131.77,-309.11,0
20856,1.23,0.09,-9.16,59.74,-6.89,-317.04,0
20880,-1.77,-0.21,-9.83,36.39,-48.72,-320.88,0
20905,-3.55,-0.55,-10.81,5.17,-78.3,-306.36,0
20929,-6.68,-0.65,-11.56,-30.38,-56.95,-282.4,0
20955,-8.53,-0.49,-11.68,-65.26,-49.33,-251.37,0
20979,-10.82,-0.35,-10.74,-95.26,-62.32,-211.79,0
21005,-11.74,-0.82,-10.12,-114.46,-9.33,-163.2,0
21030,-12.82,-0.16,-9.95,-123.43,-9.88,-116.98,0
21054,-12.54,0.78,-9.04,-135.93,-50.86,-63.32,0
21080,-11.95,1.01,-7.48,-147.88,-73.11,-6.31,0
21104,-11.5,0.88,-6.68,-162.08,-18.48,29.61,0
21129,-10.87,1.75,-5.93,-168.36,-22.26,54.12,0
21155,-9.98,2.44,-4.64,-168,-64.76,78.33,0
21179,-10.71,3.45,-2.54,-162.39,-91.1,97.59,0
21204,-11.29,4.69,-1.76,-165.38,-43.78,112.35,0
21229,-11.06,5.41,-0.28,-174.4,-51.47,134.97,0
21254,-10.04,5.53,1.11,-175.01,-52.38,162.78,0
21279,-9.56,6.32,2.13,-169.89,-39.58,181.8,0
21304,-7.63,6.03,2.94,-179.46,-5.49,199.55,0
21329,-5.69,4.62,4.24,-201.96,30.24,213.75,0
21354,-4.71,4.15,5.85,-210.19,47.13,219.24,0
21379,-4.33,4.09,8.07,-196.53,27.43,227.78,0
21403,-3.61,3.32,10.68,-173.85,-28.42,240.52,0
21429,-0.3,3.45,12.59,-130.99,-3.6,237.35,0
21454,2.56,4.9,13.82,-65.26,-26.71,208.26,0
21478,4.76,5.27,14.62,5.78,-105.86,176.5,0
21504,5.28,5.83,15.05,75.35,-194.15,138.14,0
21528,5.56,6,13.57,131.39,-175.43,97.66,0
21553,6.55,5.64,10.11,172,-124.39,65.89,0
21578,6.05,5.74,7.64,194.44,-147.44,43.02,0
21603,5.79,5.38,5.7,207.49,-186.16,24.24,0
21628,5.7,4.77,3.65,218.95,-172.5,11.13,0
21653,5.99,4.97,1.86,229.86,-150.86,5.95,0
21678,7.08,4.77,0.34,240.72,-190.98,-11.67,0
21702,6.82,4.13,-0.14,253.03,-239.21,-39.35,0
21728,7.51,3.18,-1.82,266.33,-233.05,-74.96,0
21753,7.12,1.9,-4.27,272.06,-237.68,-115.7,0
21777,5.52,1.01,-7.62,250.96,-198.42,-154.6,0
21803,3.71,0.12,-10.7,203.77,-150.37,-187.95,0
21827,2.91,0.1,-14.89,125.35,-41.77,-218.13,0
21853,3.82,-1.87,-17.42,45.41,-8.85,-243.19,0
21877,-1.19,-0.96,-16.09,-32.02,-80.31,-243.93,0
21902,-1.27,-0.22,-15.53,-95.56,59.32,-233.62,0
21928,-0.78,-0.72,-15.14,-131.41,30.42,-240.94,0
21952,-0.9,-1.54,-13.31,-159.34,-68.05,-243.56,0
21977,-4.46,-0.63,-11.15,-184.1,-67.38,-232.95,0
22002,-7.13,0.07,-9.59,-199.89,-31.59,-214.05,0
22027,-7.22,0.23,-8.85,-203.67,-6.77,-189.05,0
22053,-8.99,0.5,-7.61,-192.94,-25.98,-161.24,0
22077,-11.73,1.76,-5.79,-181.11,-40.37,-126.24,0
22102,-11.91,2.3,-4.95,-172.27,-100.8,-82.28,0
22127,-11.97,3.05,-4,-160.01,-57.75,-31.67,0
22152,-10.76,3.12,-3.38,-146.47,-56.89,1.86,0
22176,-10.85,3.53,-2.79,-136.17,-71.77,20.34,0
22202,-9.99,4.09,-1.73,-135.38,-102.2,40.77,0
22227,-10.53,4.35,-1.17,-143.12,-85.19,65.34,0
22251,-10.25,4.92,-1.28,-151.96,-34.21,85.46,0
22277,-9.69,5.17,-0.35,-157.88,-75,104.61,0
22301,-9.8,5.58,1.66,-164.46,-77.99,130.4,0
22326,-8.88,5.51,2.98,-170.99,-31.96,151.74,0
22352,-6.97,5.42,4.68,-166.78,-25.86,164.85,0
22376,-6.15,4.92,6.37,-159.1,-60,180.16,0
22401,-5.55,4.83,7.7,-156.17,-56.22,192.29,0
22426,-4.8,4.18,9.35,-142.75,-45.86,196.92,0
22451,-2.82,3.92,10.49,-120.07,-9.94,199.48,0
22477,-0.83,3.86,11.66,-92.02,-8.11,190.52,0
22501,-0.15,4.58,12.12,-51.29,-77.63,177.9,0
22526,-0.9,4.82,12.48,-8.55,-101.71,183.51,0
22551,2.39,4.72,11.77,34.38,-137.08,185.83,0
22576,5.4,4.72,11.44,73.1,-143.42,156.37,0
22600,6.05,4.87,10.65,110.29,-171.22,123.2,0
22626,6.48,5.44,9.66,152.18,-216.77,96.86,0
22651,6.99,5.49,8.46,195.84,-284.27,64.36,0
22675,6.37,5.12,6.59,225.05,-299.15,35.64,0
22701,6.93,4.67,3.38,231.27,-263.36,14.61,0
22725,7.8,4.4,0.8,231.33,-228.78,-5.21,0
22750,7.98,4.25,-1.16,229.5,-212.2,-28.99,0
22776,9.08,3.69,-3.6,220.05,-188.97,-64.35,0
22800,8.94,3.16,-5.85,200.72,-175.12,-111.24,0
22825,8.9,2.14,-8.51,165.66,-127.63,-155.94,0
22850,6.98,1.84,-9.57,116.39,-48.66,-191.43,0
22875,6.38,1.77,-11.07,74.13,79.75,-215.69,0
22899,6.87,1.37,-11.4,43.89,63.47,-248.07,0
22925,5.33,0.31,-11.06,14.56,13.72,-281,0
22950,3.63,0.04,-10.49,-10.44,30.06,-305.08,0
22974,2.87,0.48,-11,-28.85,47.98,-320.69,0
23000,2.98,-0.63,-11.51,-43.85,23.9,-340.14,0
23024,-0.6,-2.33,-11.05,-68.85,-49.39,-354.9,0
23050,-5.03,-2.38,-11.19,-104.52,-36.53,-345.08,0
23075,-9.51,-1.83,-10.83,-126.84,-4.15,-314.66,0
23099,-12.73,-1.22,-10.34,-140.93,-32.2,-259.6,0
23125,-14.88,-0.87,-9.64,-147.39,-59.39,-187.89,0
23149,-16.07,-0.34,-8.7,-152.21,-74.58,-108.74,0
23175,-15.11,1.01,-7.12,-148.73,-92.56,-28.62,0
23199,-12.57,2.02,-5.94,-146.29,-77.99,24,0
23224,-9.82,2.25,-5.32,-148.85,-68.42,41.74,0
23250,-8.97,2.53,-3.89,-149.4,-94.52,39,0
23274,-8.79,3.49,-1.79,-136.11,-126.83,36.68,0
23299,-11.48,4.93,-0.62,-121.6,-113.66,50.52,0
23324,-12.75,4.69,0.92,-126.66,-124.27,76.07,0
23349,-11.5,4.8,2.76,-120.68,-160.67,106.92,0
23374,-9.43,5.09,4.69,-105.56,-159.76,135.52,0
23399,-8.27,5.46,6.63,-87.27,-120.86,154.48,0
23424,-4.96,5.47,7.53,-65.87,-79.03,163.08,0
23448,-2.02,5,7.41,-59.04,-143.42,147.11,0
23474,0.1,5.58,9.02,-41.78,-73.72,125.4,0
23498,1.85,6.5,10.41,-2.02,-32.44,89.85,0
23523,3.84,7.91,10.26,44.19,-206.1,33.21,0
23549,0.4,9.28,10.09,79.19,-123.66,4.43,0
23573,-2.07,9.66,8.76,99.74,-43.6,8.82,0
23598,-2.41,9.18,6.8,88.1,-65.55,23.75,0
23622,-3.55,9.45,6.48,69.07,19.45,43.21,0
23648,-3.44,9.77,5.88,62.67,18.96,55.83,0
23673,-3.56,9.64,4.56,55.66,-42.75,71.19,0
23697,-4.52,9.11,4.91,35.35,52.86,104.12,0
23722,-4.66,8.89,4.2,22.55,118.59,144,0
23747,-1.86,7.26,4.52,10.29,94.2,172.66,0
23772,0.86,5.91,5.87,10.72,62.5,183.26,0
23796,3.42,5.56,6.35,24.32,69.87,173.39,0
23822,5.5,6.37,7.08,46.15,39.39,158.81,0
23847,9.24,6.46,7.22,87.79,-12.2,124.06,0
23871,10.53,6.58,6.49,121.57,-50.74,67.17,0
23896,9.05,7.08,5.28,144.25,-27.2,22.84,0
23921,7.71,7.02,4.34,161.33,-22.75,-0.45,0
23946,7.57,6.54,3.07,172.36,-1.04,-25.7,0
23971,6.92,6.2,1.91,182.91,-16.1,-51.25,0
23995,5.59,5.13,1.14,196.27,-43.78,-70.21,0
24021,4.82,3.87,-0.86,201.51,9.51,-81.73,0
24045,7.38,3.1,-3.2,207.24,29.57,-99.72,0
24070,8.34,1.6,-6.43,201.45,-4.27,-141.61,0
24095,7.45,0.1,-10.88,179.44,75.3,-178.07,0
24120,5.78,0.87,-13.21,150.35,26.58,-205.63,0
24145,5.01,1.18,-16.3,91.08,-50,-238.13,0
24170,2.95,1.71,-18.48,1.88,24.57,-254.17,0
24195,1.06,0.82,-18.63,-86.96,22.56,-268.01,0
24219,-4.63,-0.68,-15.57,-149.77,-23.66,-268.13,0
24245,-9,0.72,-12.52,-163.36,-66.59,-222.65,0
24270,-10.79,2.81,-10.78,-173.06,-123.97,-150.76,0
24295,-11.69,3.06,-8.17,-193.55,-79.52,-92.83,0
24320,-10.01,3.69,-5.96,-187.57,-29.7,-51.43,0
24344,-9.33,3.9,-3.73,-161.35,-65.86,-25.76,0
24370,-10.17,4.56,-2.27,-127.45,-92.69,-14.36,0
24394,-11.85,5.89,-0.86,-114.52,-138.6,5.52,0
24419,-11.48,6.53,0.73,-109.1,-97.08,42.66,0
24445,-10.2,7.35,1.8,-89.28,-64.82,66.13,0
24469,-9.94,7.5,2.62,-74.58,-127.32,72.6,0
24494,-10.49,7.99,4.2,-77.27,-153.6,92.11,0
24519,-8.43,7.74,5.75,-76.17,-75.67,118.57,0
24544,-6.43,8.4,6.09,-73.91,-54.39,124.55,0
24569,-5.95,8.31,6.45,-80.32,-108.6,134.97,0
24594,-4.89,7.46,7.41,-87.51,-55.19,153.45,0
24619,-3.43,6.72,7.41,-92.45,-19.88,158.75,0
24643,-2.18,6.19,7.69,-103.55,-40.25,162.66,0
24668,-0.23,5.64,8.77,-110.99,2.19,165.52,0
24693,1.07,6.09,9.77,-108.55,36.34,155.28,0
24718,2.09,6.42,10.55,-87.02,28.9,137.53,0
24743,3.51,5.51,10.93,-67.88,-12.38,112.35,0
24768,4.9,5.32,11.98,-50.8,-5.19,74.91,0
24793,4.4,5.16,12.45,-22.82,19.69,35.77,0
24817,3.1,5.47,12.22,9.56,-8.36,21.13,0
24842,2.98,6.1,12.37,47.43,-25.19,22.23,0
24868,4.06,6.17,11.59,84.62,-21.77,19.12,0
24892,4.84,5.38,10.51,111.21,-33.36,6.68,0
24917,4.21,5.27,9.65,136.45,-21.22,-2.53,0
24942,3.96,5.38,8.34,166.45,-20.19,-5.76,0
24967,4.22,4.93,7.4,193.16,-54.33,-10.09,0
24991,4.86,4.57,5.99,217.36,-42.14,-16.31,0
25016,5.62,4.55,3.18,233.77,-10.92,-29.48,0
25042,5.77,4.3,0.77,236.51,-34.7,-47.22,0
25066,5.66,3.96,0.03,240.9,-50.31,-66,0
25091,4.85,3.72,-1.84,245.17,-41.89,-85.21,0
25116,5.92,3.71,-5.29,231.45,20.73,-106.43,0
25141,5.6,3.44,-6.59,203.16,-35,-140.33,0
25166,2.27,3.22,-4.81,180.84,-80.37,-170.33,0
25191,-0.94,2.96,-5.52,174.74,4.51,-176,0
25216,-0.82,1.84,-7.99,161.57,42.5,-176,0
25240,-4.11,1.33,-7.69,144.68,-59.52,-173.99,0
25266,-7.44,1.51,-6.09,138.28,-34.15,-151.43,0
25290,-9.84,1.63,-6.04,149.74,5.3,-99.23,0
25315,-9.29,-0.38,-8.36,157.24,-1.77,-45.94,0
25340,-8.76,-0.71,-10.12,161.39,-26.53,-8.93,0
25365,-8.43,-0.87,-12.48,139.99,-36.71,15.52,0
25390,-7.05,-0.35,-15.08,99.68,-6.77,40.22,0
25414,-5.2,-0.76,-18.5,23.83,18.11,34.42,0
25440,-5.99,-0.14,-18.87,-68.73,14.39,12.23,0
25465,-6.61,0.92,-17.97,-146.66,22.07,9,0
25489,-5.67,2.05,-16.53,-214.64,16.21,11.8,0
25515,-5.51,2.75,-13.65,-280.44,30.06,11.92,0
25539,-5.93,3.27,-10.15,-320.07,65.18,-1.25,0
25564,-7.83,5.35,-6.74,-326.72,27.19,3.88,0
25588,-8.04,6.98,-4.22,-318.61,13.29,26.62,0
25614,-7.05,6.93,-1.64,-315.92,-6.47,36.38,0
25639,-6.67,8.37,1.99,-294.58,-37.14,41.99,0
25663,-6.77,9.52,4.56,-256.84,-59.39,64.18,0
25689,-4.76,9.3,5.9,-222.57,-54.64,83.51,0
25713,-2.56,8.92,6.47,-196.35,-50.06,88.57,0
25738,-2.59,8.02,8.18,-188.67,-63.6,85.64,0
25763,-3.78,7.69,9.45,-178.91,-23.3,95.28,0
25788,-2.21,7.13,10.49,-160.01,3.35,102.17,0
25813,-1.13,6.08,11.48,-138.12,-33.17,101.8,0
25837,-1.12,6.56,13.17,-108.61,-23.85,107.05,0
25863,-0.52,6.21,13.5,-74.04,-7.93,114.97,0
25887,0.66,5.59,13.13,-34.4,-25.31,115.52,0
25913,2.07,5.05,12.97,0.41,-59.94,102.35,0
25938,3.54,4.59,12.72,32.12,-50.49,79.36,0
25962,3.94,4.88,11.54,61.88,-22.14,68.08,0
25987,5.57,4.91,10.59,91.39,-37.08,54.06,0
26012,6.06,4.69,10.65,126.08,-88.54,27.17,0
26037,5.65,3.81,9.7,156.75,-75.19,2.84,0
26062,5.03,3.47,8.36,181.33,-45.37,-6,0
26086,5.22,3.61,6.75,212.18,-55.13,-3.93,0
26112,6.49,3.1,5.4,245.47,-101.53,-14.84,0
26136,7.46,2.33,3.74,272.67,-119.45,-42.1,0
26161,8.04,1.17,1.48,284.37,-98.72,-76.92,0
26186,8.08,0.7,-1.02,286.81,-71.89,-113.68,0
26211,7.13,0.2,-4.14,285.47,-60.61,-148.44,0
26236,5.31,-0.33,-8.27,262.42,-53.85,-180.7,0
26261,4.8,-0.31,-12.45,212.06,-20.61,-210.69,0
26286,2.7,-0.11,-14.59,138.4,-50.06,-235.45,0
26310,-0.36,-0.5,-14.17,64.13,-13.97,-237.04,0
26336,-2.57,-0.02,-13.46,20.48,20.12,-225.51,0
26361,-3.69,-0.44,-14.2,-15.2,-12.57,-220.45,0
26385,-4.71,-0.49,-14.14,-52.27,-35.31,-208.19,0
26411,-7.57,1.31,-12.41,-99.95,-38.54,-173.01,0
26435,-8.28,1.58,-11.12,-119.52,17.19,-147.16,0
26461,-8.46,1.45,-10.65,-124.65,-53.6,-122.95,0
26485,-10.81,1.12,-9.55,-135.68,-99.45,-92.04,0
26510,-12.7,3.19,-7.71,-153.55,-8.66,-43.5,0
26536,-13.79,3.71,-7.07,-162.33,-16.04,-9.97,0
26560,-13.41,4.38,-5.77,-168.3,-75.92,31.13,0
26585,-12.51,4.92,-4.62,-172.14,-51.04,68.27,0
26610,-11.47,6.16,-3.47,-187.51,-37.38,92.35,0
26635,-9.86,7.66,-2.33,-207.02,-38.85,99.85,0
26660,-7.88,8.31,-0.31,-220.8,-33.85,105.83,0
26685,-6.53,8.06,2.51,-221.66,-24.52,101.92,0
26710,-6.92,7.45,4.35,-214.52,-37.44,96.01,0
26734,-7.34,7.6,6.28,-199.34,-43.17,107.17,0
26760,-5.84,6.52,6.98,-187.08,-37.99,124.36,0
26784,-5.02,5.6,8.22,-183.06,-35.92,131.38,0
26809,-4.17,5.27,9.64,-164.52,-8.24,129.67,0
26835,-3.22,4.99,11.07,-137.88,-38.3,127.11,0
26859,-2.13,4.74,12.47,-116.23,-47.87,125.64,0
26884,-2.42,4.92,13.96,-88.67,-45.13,135.7,0
26909,-1.23,4.99,14.83,-42.33,-52.93,148.51,0
26934,0.15,4.15,14.84,8.83,-71.77,143.75,0
26959,0.9,3.74,14.45,60.9,-92.02,128.2,0
26984,1.28,4.01,13.6,119.13,-126.16,110.95,0
27009,2.31,3.42,11.22,171.63,-151.47,93.88,0
27034,2.97,3.47,9.39,207.49,-183.54,76.92,0
27059,4.07,3.15,7.67,234.25,-212.01,58.88,0
27083,3.91,2.76,5.47,248.77,-208.29,50.16,0
27109,5.84,3.04,2,247.24,-69.7,59.79,0
27134,9.33,2.2,-1.17,225.05,-34.82,46.86,0
27158,10.88,2.99,-1.57,218.89,-154.76,-3.62,0
27183,9.22,2.1,-0.89,228.28,-234.09,-59.35,0
27208,9.08,0.84,-3.78,224.25,-88.78,-100.51,0
27233,9.9,1.64,-7.6,209.92,2.01,-132.52,0
27258,10.21,0.28,-10.36,178.16,-89.03,-181.85,0
27283,6.49,0.24,-12.11,128.52,-72.63,-226.3,0
27308,6.14,0.87,-14.29,72.36,52.37,-255.51,0
27333,4.56,0.79,-13.86,14.87,-38.17,-282.89,0
27358,2.25,-0.35,-13.14,-44.1,-39.21,-296.73,0
27383,-0.67,0.06,-11.95,-78.24,48.47,-302.52,0
27408,-3.69,1.02,-11.72,-96.17,-21.96,-287.1,0
27433,-5.85,1.17,-10.56,-111.84,-73.78,-259.05,0
27457,-8.53,1.49,-9.53,-134.22,-47.75,-220.33,0
27483,-11.21,1.91,-8.17,-139.77,-8.85,-188.87,0
27507,-13.22,3.35,-6.84,-142.57,-55.61,-134.23,0
27533,-13.34,3.08,-5.76,-140.44,-46.28,-82.65,0
27558,-13.85,3.57,-5.18,-137.39,-30.31,-45.45,0
27582,-14.23,3.96,-4.32,-128.24,-56.53,-6.98,0
27608,-13.56,4.42,-3.19,-120.68,-83.24,36.07,0
27632,-12.63,4.55,-2.34,-127.69,-77.56,71.19,0
27657,-11.75,5.33,-1.5,-143.49,-63.97,97.41,0
27683,-10.96,5.86,-0.58,-156.72,-62.63,125.03,0
27707,-9.1,5.73,0.95,-170.68,-61.16,151.31,0
27732,-7.34,5.27,3.12,-171.17,-53.78,165.58,0
27757,-5.6,5.03,4.11,-170.01,-53.85,171.8,0
27782,-3.68,4.12,5.23,-183.55,-54.09,176.68,0
27806,-3.03,4.25,6.76,-193.49,6.95,174.85,0
27832,-2.26,4.29,8.25,-179.28,8.53,160.16,0
27857,-2.71,3.59,9.59,-161.6,-55.49,149.85,0
27881,-1.99,4.14,11.75,-135.56,-31.59,149.3,0
27907,-0.82,4.75,13.64,-95.5,-48.66,148.75,0
27931,0.04,4.56,14.55,-49.83,-110,154.67,0
27956,1.16,4.27,14.67,-2.94,-122.87,152.29,0
27982,2.02,4.54,13.92,46.21,-92.02,138.63,0
28006,3.54,3.77,11.94,83.16,-100.37,116.8,0
28031,3.92,4.5,11.32,117.12,-168.6,107.35,0
28056,4.43,4.73,10.53,157.61,-191.22,94.85,0
28081,5.55,4.24,8.06,188.1,-164.39,75.46,0
28106,7.25,3.44,5.32,204.25,-184.09,50.28,0
28131,7.19,3.81,4.21,216.39,-235.73,24.12,0
28156,7.84,2.98,2.39,223.1,-166.83,7.11,0
28181,9.38,3.01,0.47,229.92,-90.55,-2.4,0
28206,11.7,2.9,-1.21,238.52,-173.36,-36.06,0
28230,11.04,1.97,-4.3,238.09,-183.36,-90.94,0
28256,10.28,0.95,-8.49,209.01,-76.65,-133.32,0
28281,9.28,1.55,-9.52,166.21,-94.52,-166.55,0
28305,6.75,1.86,-9.84,122.91,-139.64,-200.09,0
28331,7.22,1.16,-11.7,68.22,28.29,-231.67,0
28355,5.72,1.33,-11.45,29.44,16.7,-259.11,0
28380,2.28,1.59,-9.42,-4.04,-71.41,-270.82,0
28405,0.34,1.79,-9.24,-21.48,42.68,-269.78,0
28430,0.35,2.01,-9.75,-27.09,33.47,-271.55,0
28455,-0.06,1.86,-10.07,-38.37,-75.13,-276.73,0
28480,-2.05,1.73,-9.98,-60.62,-38.6,-281.18,0
28505,-5.28,1.59,-8.95,-84.28,-39.46,-271.24,0
28529,-8.23,1.51,-7.68,-93.79,-37.5,-240.57,0
28555,-11.3,1.34,-7.4,-90.26,-25,-199.11,0
28580,-14.59,1.14,-6.82,-89.58,-57.2,-155.45,0
28604,-16.68,2.4,-6.08,-93.91,-103.42,-89.72,0
28630,-17.01,2.53,-5.58,-97.88,-66.1,-11.61,0
28654,-15.78,2.56,-5.49,-107.94,-29.46,50.77,0
28679,-13.89,3.16,-4.95,-119.77,-45.37,92.05,0
28704,-12.19,3.91,-4.09,-130.74,-62.32,118.88,0
28729,-11.05,4.28,-2.93,-148.73,-61.35,140.83,0
28754,-9.11,5.29,-1.36,-161.9,-43.72,156.07,0
28779,-7.59,6,0.08,-167.45,-51.04,167.59,0
28804,-6.95,6.38,1.53,-178.97,-38.11,180.64,0
28828,-5.69,6.38,3.14,-190.13,-14.27,190.34,0
28854,-4.61,5.71,4.81,-195.56,-15.25,195.58,0
28879,-4.05,5,6.12,-199.16,7.8,204.24,0
28903,-1.64,4.47,7.47,-197.57,31.03,200.09,0
28929,-0.11,4.24,9.46,-187.08,14.2,175.76,0
28953,-0.14,5.06,11.17,-156.96,-17.02,163.2,0
28978,1.24,5.2,12.91,-115.26,-26.22,157.35,0
29003,2.11,5.83,13.58,-69.65,-14.94,146.68,0
29028,3.85,5.58,12.64,-26.48,-34.33,125.58,0
29054,5.89,5.79,12.33,8.34,-76.22,84.85,0
29078,4.95,5.94,11.95,47.97,-119.58,48.08,0
29103,3.91,5.9,11.15,85.54,-114.58,24.97,0
29127,2.39,6.02,10.13,120.23,-113.36,23.45,0
29153,2.27,5.3,8.42,144.5,-110.43,33.51,0
29178,3.13,5.86,6.97,163.4,-130.43,55.89,0
29203,5.2,5.53,6.35,179.8,-160.61,59.12,0
29228,6.31,5.02,5.36,201.45,-159.39,39.3,0
29252,7.27,4.7,4.06,223.58,-151.59,10.64,0
29278,8.06,2.88,2.43,235.17,-170,-21.92,0
29303,7.99,3.22,0.78,248.7,-160.86,-56.55,0
29327,8.37,2.64,-2.25,255.72,-144.33,-92.53,0
29353,9.33,0.64,-6.1,241.14,-138.23,-134.17,0
29377,7.74,0.6,-9.58,203.34,-110.98,-178.56,0
29402,7.8,1.48,-11.41,139.56,-56.95,-220.15,0
29427,8.68,1.41,-13.72,68.95,7.56,-270.15,0
29452,7.47,-1.14,-13.61,6.76,-16.47,-321.49,0
29477,4.01,-0.92,-12.77,-43.49,-70.19,-348.07,0
29502,-0.34,-1.29,-11.33,-93.49,-39.27,-352.03,0
29527,-2.6,-0.46,-10.4,-116.23,3.53,-334.47,0
29551,-6.07,-0.22,-9.02,-123.18,-58.78,-314.17,0
29577,-10.44,-0.27,-7.91,-126.05,-69.03,-277.04,0
29602,-14.46,0.47,-6.94,-123.55,-67.81,-218.87,0
29627,-16.04,0.58,-6.05,-120.99,-73.3,-140.51,0
29652,-16.67,1.38,-5.2,-107.33,-35.55,-62.95,0
29676,-15.27,2.24,-6.04,-106.54,-65.67,-10.33,0
29702,-13.72,2.27,-5.59,-117.63,-101.1,29.55,0
29726,-12.22,2.01,-4.42,-133.67,-94.52,62.11,0
29751,-11.21,2.35,-2.59,-142.27,-66.77,74.67,0
29777,-11.01,3.37,-0.96,-142.82,-107.56,86.86,0
29801,-10.15,4.08,1.03,-146.29,-123.6,106.99,0
29827,-9.44,4.71,2.94,-144.77,-80.92,123.45,0
29851,-9.2,5.25,4.08,-140.93,-81.47,130.03,0
29876,-8.79,5.85,5.21,-140.44,-101.47,146.01,0
29902,-6.91,5.66,6.35,-133.49,-63.48,162.78,0
29926,-5.83,5.74,7.16,-124.95,-44.82,169.97,0
29951,-4.22,5.2,7.1,-122.15,-26.47,170.22,0
29976,-2.84,4.46,6.95,-135.01,-21.59,167.59,0
30001,-2.49,4.61,8.39,-140.07,-4.52,159.3,0
30025,-2.7,5.09,10.36,-123.18,-7.38,152.11,0
30051,-3.13,5.56,12.48,-95.62,-27.44,164.91,0
30076,-2.65,5.22,13.74,-57.51,-26.1,188.02,0
30100,-0.7,5.03,13.05,-11.84,-34.39,198.2,0
30126,1.06,3.49,11.78,24.19,-67.32,189.79,0
30150,2.29,3.12,11.47,53.1,-108.23,169.12,0
30175,3,3.83,11.37,85.29,-115.61,145.64,0
30201,2.65,3.58,11.15,123.83,-146.65,127.59,0
30225,2.71,3.08,10.38,165.66,-176.16,130.4,0
30251,4.78,3.03,8.29,203.64,-184.09,130.22,0
30275,7.26,2.73,6.43,227.67,-208.05,104.49,0
30300,8.67,2.27,5.01,247.91,-246.71,66.31,0
30325,9.83,2.29,2.95,264.74,-254.76,22.6,0
30350,10.4,1.41,0.12,268.28,-209.94,-27.46,0
30375,10.66,0.99,-4.05,246.02,-63.11,-67.1,0
30400,12.91,1.26,-7.53,210.53,-17.99,-106.67,0
30425,11.96,1.45,-7.2,177,-151.04,-157.04,0
30450,9.46,1.08,-8.23,145.29,-144.21,-204.41,0
30475,13.21,0.44,-10.85,110.05,124.14,-248.93,0
30500,12.31,-0.61,-11.09,88.95,-19.52,-311.55,0
30525,6.33,-1.33,-11.28,50.96,-140.73,-360.51,0
30550,2.59,-1.57,-12.06,13.77,11.95,-365.88,0
30575,1.83,-1.46,-12.05,-7.21,-29.52,-363.86,0
30600,-1.82,-2.57,-12.92,-48.18,-151.53,-366.06,0
30624,-6.95,-2.32,-11.57,-89.77,-83.6,-338.68,0
30650,-11.72,-1.22,-9.9,-117.27,-101.22,-281.79,0
30675,-14.41,-0.8,-7.72,-128.43,-87.93,-206.79,0
30700,-14.44,0.09,-6.19,-121.11,-78.72,-126.55,0
30725,-14.27,0.69,-5.11,-106.84,-91.04,-54.42,0
30749,-12.78,0.97,-4.85,-96.84,-76.16,-7.22,0
30775,-11.65,1.75,-4.83,-100.99,-98.3,21.19,0
30800,-10.84,2.61,-4.49,-113.61,-98.91,46.25,0
30824,-10.74,2.73,-3.84,-132.27,-70.8,65.22,0
30850,-10.98,3.7,-1.95,-146.23,-74.58,74.18,0
30874,-11.21,4.69,-0.55,-147.94,-95.55,85.7,0
30899,-10.76,5.14,0.74,-150.07,-98.97,108.27,0
30925,-10.27,5.21,2.47,-157.33,-69.09,128.88,0
30949,-9.37,5.8,4.17,-163.06,-57.32,141.92,0
30974,-8.37,5.56,5.06,-170.93,-75.49,161.01,0
30999,-6.73,5.66,6.71,-170.68,-10.31,179.18,0
31024,-5.56,5.7,7.8,-162.45,25.97,185.34,0
31049,-4.26,4.96,8.05,-154.65,-8.24,188.39,0
31074,-2,3.86,8.48,-145.68,14.32,182.35,0
31099,-0.58,4.21,9.93,-137.75,37.8,157.23,0
31124,-0.56,4.87,11.43,-116.47,17.43,127.9,0
31149,-2.08,5.01,13.3,-88.37,-22.26,121.01,0
31173,-1.9,5.11,14.32,-49.83,-15.31,124.06,0
31199,-0.74,4.93,14.34,-2.51,-28.97,118.27,0
31224,-0.35,4.99,14,44.07,-79.7,111.5,0
31248,-1.45,4.94,13.27,84.01,-90.61,120.4,0
31274,-1.74,4.48,10.95,115.72,-66.28,141.86,0
31298,0.35,3.8,9,132.36,-77.32,161.92,0
31323,3.11,3.23,8.47,150.23,-126.34,161.25,0
31348,5.13,3.4,8.21,185.9,-186.59,136.98,0
31373,7.13,3.41,7.05,227.91,-240.49,94.67,0
31398,10.27,2.48,5.1,252.42,-270.18,36.19,0
31423,10.77,2.51,2.87,260.66,-262.14,-28.14,0
31448,10.22,2.79,-0.82,257.97,-161.04,-78.56,0
31473,11.12,1.53,-5.2,236.02,-106.04,-124.78,0
31498,10.31,1.92,-6.72,202.73,-160.06,-171.3,0
31523,9.48,1.69,-7.38,162.12,-166.1,-228.19,0
31548,8.51,1.81,-8.37,117.49,-62.69,-270.94,0
31573,7.37,0.88,-9.49,78.22,-4.82,-310.45,0
31597,2.94,1.14,-8.65,55.35,-53.66,-337.83,0
31623,-0.63,0.7,-9.14,39.68,-60.13,-336.73,0
31647,-2.88,0.92,-9.85,16.76,-32.14,-319.35,0
31672,-5.54,0.9,-10.51,-14.65,-42.14,-294.84,0
31698,-8.14,0.27,-10.46,-45.07,-34.39,-258.62,0
31722,-10.62,-0.02,-10.57,-68.3,-14.15,-211.37,0
31747,-13.1,0.34,-10.74,-83.79,-19.88,-150.7,0
31772,-13.83,0.06,-10.81,-96.47,-35.19,-87.65,0
31797,-13.67,0.54,-9.43,-115.62,-54.03,-33.32,0
31823,-12.37,1.49,-8.59,-124.71,-45.13,19.73,0
31847,-10.47,1.21,-8.35,-142.45,-47.5,50.58,0
31872,-9.55,1.57,-6.92,-163.55,-49.39,57.78,0
31897,-9.28,3.41,-5.03,-170.8,-62.56,62.47,0
31922,-9.52,4.27,-4.03,-177.39,-78.24,76.07,0
31946,-9.45,4.29,-2.11,-187.63,-61.22,87.59,0
31971,-9.67,5.1,0.06,-187.27,-51.53,93.45,0
31997,-9.58,5.49,2.01,-177.82,-69.64,103.14,0
32021,-9.46,5.79,3.09,-169.16,-73.91,122.29,0
32046,-8.71,6.53,3.91,-162.39,-29.39,140.83,0
32071,-7.03,6.31,5.19,-162.51,-21.59,149.24,0
32096,-6.05,6.1,6.52,-161.6,-6.53,152.72,0
32121,-5.39,6.2,7.33,-154.16,14.45,155.89,0
32146,-4.62,5.9,8.19,-141.23,-9.09,158.75,0
32171,-3.46,4.64,9.23,-133.36,-4.39,162.66,0
32195,-2.23,4.05,11.05,-125.56,18.59,156.8,0
32221,-2.44,4.65,12.69,-98.49,28.11,150.03,0
32245,-1.31,5.16,13.7,-51.6,34.45,152.59,0
32270,0.04,4.45,14.49,-7.57,-14.33,148.51,0
32296,0.63,5.62,13.65,39.68,-3.24,137.35,0
32320,0.2,5.29,11.56,74.26,-41.41,131.19,0
32345,0.14,4.99,10.52,90.54,-61.71,131.56,0
32370,2.09,5.02,9.75,103.95,-63.72,124.97,0
32395,3.24,5.15,9.43,114.07,-62.56,105.03,0
32420,4.02,5.02,8.05,119.62,-31.35,86.44,0
32445,5.51,5.36,8.04,133.89,-72.2,71.44,0
32470,6.51,4.7,8.8,169.62,-153.97,47.17,0
32494,7.07,4.3,7.26,210.35,-148.17,27.66,0
32519,9.4,4.39,3.28,241.08,-152.44,2.29,0
32544,9.47,3.09,0.01,254.38,-242.87,-39.29,0
32569,8.48,2.69,-1.46,254.86,-197.62,-79.48,0
32594,7.64,3.79,-5.29,240.23,-100.49,-101.37,0
32619,9.55,3.18,-8.01,213.03,-118.05,-139.41,0
32644,6.58,1.3,-8.85,168.46,-197.99,-187.83,0
32669,2.94,2.97,-8.8,127.85,-116.04,-210.15,0
32694,3.39,2.4,-11.45,87.67,-8.91,-222.1,0
32719,2.41,2.58,-11.96,37.24,-104.39,-239.72,0
32744,0.09,2.11,-11.01,-11.17,-132.5,-249.54,0
32769,-2.54,0.92,-10.48,-51.54,-39.52,-251.43,0
32793,-4.91,1.3,-9.58,-76.84,-14.64,-241.06,0
32819,-7.06,2.11,-8.68,-83.79,-58.17,-217.04,0
32843,-8.71,2.63,-8.13,-93.3,-73.85,-188.87,0
32868,-10.73,2.62,-7.01,-109.34,-58.66,-162.04,0
32894,-12.06,2.84,-5.81,-121.84,-50.37,-122.28,0
32918,-12.97,3.09,-4.4,-120.5,-42.2,-75.51,0
32944,-13.51,3.09,-3.77,-106.29,-11.16,-41.43,0
