t_ms,ax,ay,az,gx,gy,gz,label
5,6.76,0.64,8.21,-14.71,0.3,-3.26,2
29,6.56,0.73,8.18,-6.96,-6.71,-3.81,2
54,5.9,0.72,7.5,-1.35,-6.04,-3.5,2
78,5.65,0.68,6.83,3.16,-1.59,-0.33,2
102,5.48,0.63,6.34,3.77,-1.96,4.61,2
127,5.62,0.51,5.98,4.56,-4.46,11.56,2
152,6.05,0.72,5.65,4.99,-10.37,17.47,2
177,6.42,0.81,5.58,5.54,-12.44,16.56,2
201,6.23,0.83,5.49,4.19,5.18,12.6,2
226,6.53,1,5.68,3.89,9.14,14.67,2
251,6.8,1.07,5.78,3.28,1.52,20.16,2
275,7.53,0.86,6.26,0.48,0.91,25.71,2
300,8.83,0.72,6.75,-2.15,-3.66,29.24,2
324,9.57,0.81,7.29,-5.2,-9.88,24.61,2
349,10.02,0.88,7.58,-2.94,-11.1,12.35,2
373,9.37,1.12,7.45,0.05,-11.04,-3.87,2
398,8.74,1.11,7.14,4.07,5.18,-18.93,2
423,7.86,0.86,6.75,8.04,8.35,-28.01,2
447,6.81,0.49,6.75,11.63,8.9,-29.42,2
472,6.11,0.39,6.46,15.29,5.85,-24.17,2
496,5.75,0.5,5.85,16.39,4.69,-18.56,2
521,5.5,0.6,5.51,14.01,13.11,-13.93,2
547,5.41,0.46,5.33,10.05,16.28,-6.86,2
571,6.04,0.4,5.32,3.83,14.69,-0.27,2
596,6.4,0.52,5.28,-4.71,4.32,3.08,2
620,6.75,0.72,5.78,-13.06,8.78,2.05,2
645,6.86,0.9,6.34,-16.72,1.28,-1.18,2
669,6.33,0.77,7.08,-15.87,1.76,-1.98,2
694,6.15,0.62,7.56,-8.43,10.61,1.5,2
719,6.25,0.63,7.59,1.33,12.37,6.13,2
743,6.52,0.73,7.27,10.6,6.76,12.72,2
768,6.62,0.84,6.59,15.54,3.04,15.4,2
792,6.73,0.83,6.1,14.56,10,14.42,2
817,7.2,0.82,6.1,11.09,8.47,12.96,2
841,7.58,1.03,6.04,6.15,-4.52,8.27,2
866,7.07,0.94,6.21,-1.17,-0.43,1.07,2
891,6.57,0.82,6.68,-9.1,19.02,-1.18,2
915,6.94,0.61,7.63,-9.52,16.89,0.71,2
940,6.72,0.35,8.1,-4.16,6.03,1.99,2
964,6.6,0.33,8.28,1.39,13.96,3.33,2
989,6.77,0.27,8.23,7.3,14.26,4.61,2
1013,6.66,0.46,8.09,12.91,7.19,4.43,2
1038,6.32,0.78,7.51,18.46,8.41,2.53,2
1063,6.22,0.87,7.04,19.99,16.34,3.14,2
1088,6.41,0.79,6.59,18.4,9.45,6.13,2
1113,6.57,0.54,6.44,13.52,2.74,8.69,2
1137,6.9,0.7,6.53,9.26,0.42,8.57,2
1162,6.91,0.84,6.69,6.27,2.25,3.94,2
1187,6.73,1.11,6.61,5.23,5.79,-1.25,2
1211,6.46,1.13,6.55,4.68,3.78,-2.53,2
1236,6.49,1.16,6.35,3.04,3.11,-1.12,2
1260,6.74,0.96,6.37,-0.07,0.73,-0.33,2
1285,6.92,1.13,6.4,-2.82,-2.57,-1.12,2
1309,6.98,1.22,6.49,-7.94,-5.19,-4.05,2
1334,6.83,1.19,6.84,-10.62,-5.86,-8.32,2
1359,6.58,1.14,7.17,-9.22,-5.25,-12.04,2
1383,6.29,1.03,7.31,-5.74,-4.7,-14.05,2
1408,5.94,0.88,7.35,-1.11,-7.32,-13.62,2
1432,5.59,0.74,7.2,1.51,-5.92,-11.43,2
1458,5.48,0.8,6.95,2.18,-4.58,-9.42,2
1482,5.11,0.64,7,3.04,-4.15,-6.73,2
1507,4.92,0.62,6.83,3.89,-1.47,-1.37,2
1532,4.93,0.5,6.66,1.27,-0.19,4.91,2
1556,5.3,0.61,6.9,-1.84,-7.32,11.01,2
1581,5.41,0.54,7.12,-3.85,-10.92,16.44,2
1605,6.03,0.63,7.41,-4.1,-8.42,20.03,2
1630,6.74,0.62,7.86,-4.28,-11.04,20.22,2
1655,7.15,0.82,8.06,-2.09,-10.07,17.6,2
1679,7.4,0.97,7.91,2.98,-10.43,13.88,2
1704,7.43,0.94,7.75,7.18,-9.82,9.49,2
1728,7.16,0.81,7.36,9.07,-6.35,6.62,2
1753,7.1,0.75,7.09,9.32,-2.75,4.85,2
1777,6.89,0.87,6.8,8.4,-0.55,3.08,2
1803,6.76,0.73,6.67,6.82,5.18,1.86,2
1828,6.52,0.66,6.34,4.99,4.45,1.13,2
1852,6.42,0.74,6.24,0.72,10.3,-0.03,2
1877,6.14,0.72,5.97,-3.98,8.96,-1.55,2
1901,6.37,0.54,6.13,-7.7,12.98,-1.61,2
1926,6.43,0.61,6.34,-7.51,1.82,0.1,2
1950,6.17,0.46,6.49,-7.82,-1.89,2.47,2
1975,6.79,0.33,6.64,-10.07,1.7,5.22,2
2000,7.24,0.55,7.04,-10.68,-3.05,6.25,2
2024,7.44,0.79,7.23,-8.79,-6.83,3.82,2
2049,7.65,0.58,7.54,-6.48,-0.98,-0.94,2
2073,7.95,0.71,7.81,-3.18,3.65,-5.21,2
2098,7.74,0.79,7.68,1.09,-0.31,-11.98,2
2122,7.05,0.95,7.51,4.87,3.29,-18.62,2
2147,6.26,0.96,6.99,6.39,9.87,-23.07,2
2172,5.28,0.89,6.42,6.21,12.92,-21.79,2
2197,4.19,0.79,5.85,3.65,11.89,-14.11,2
2222,3.61,0.56,5.37,0.9,7.5,-1.92,2
2246,3.2,0.41,4.9,-4.71,6.95,11.56,2
2271,3.31,0.56,4.52,-11.84,7.86,22.47,2
2296,3.06,0.44,4.34,-17.45,2.13,31.32,2
2320,2.63,-0.07,4.44,-25.38,4.32,43.45,2
2345,4.03,-0.83,5.49,-33.85,16.09,59.18,2
2369,6.32,-1.25,6.89,-35.5,-8.91,75.83,2
2394,8.45,-1.07,7.56,-34.34,-36.04,85.7,2
2419,11.7,0.04,9.01,-40.44,-18.05,76.31,2
2444,16.06,0.86,11.4,-34.89,-17.99,53.39,2
2469,18.6,0.98,14.04,-18.37,-26.96,23.21,2
2493,18.6,1.33,16.47,7.98,21.95,-28.5,2
2519,18.6,1.27,17.88,39.01,31.76,-93.01,2
2543,18.6,0.04,17.73,67.91,-17.44,-160.51,2
2568,18.6,-1.72,16.81,94.86,1.7,-213.8,2
2594,15.64,-3.14,15.86,124.19,13.11,-247.1,2
2618,11.21,-4.55,14.02,159.62,12.56,-255.82,2
2643,7.4,-6.13,10.06,185.84,-26.28,-241.3,2
2668,3.79,-6.64,4.94,190.05,-70.25,-216.91,2
2693,0.03,-6.94,-0.1,168.95,-82.2,-194.96,2
2717,0.16,-6.88,-4.09,143.58,-111.28,-170.88,2
2743,-4.5,-5.88,-7.94,91.82,-148.05,-147.22,2
2768,-9.48,-4.97,-10.33,37,-149.03,-113.32,2
2792,-12.35,-3.63,-11.23,-16.9,-105.13,-55.88,2
2818,-11.5,-4.15,-11.56,-75.74,-86.22,11.19,2
2842,-9.19,-4.19,-10.02,-136.78,-113.91,71.5,2
2867,-7.67,-4.93,-6.92,-192.02,-127.44,124.18,2
2893,-5.82,-5.76,-2.08,-220.19,-132.44,171.68,2
2917,-4.1,-6.85,1.86,-222.02,-142.32,222.17,2
2942,-1.83,-7.63,4.66,-212.21,-122.63,270.28,2
2967,2.4,-8.72,7.14,-191.9,-94.15,309,2
2992,9.67,-9.82,9.99,-167.45,-51.47,330.21,2
3016,17.98,-10.32,12.74,-135.38,-55.25,330.7,2
3042,18.6,-9.56,14.22,-95.99,-64.15,303.08,2
3067,18.6,-5.91,13.59,-62.09,-8.17,225.03,2
3091,18.6,-4.06,14.23,-40.07,9.02,118.51,2
3117,18.6,-3.7,14.2,-12.09,-2.38,16.38,2
3141,18.6,-3.09,13.44,10.72,39.57,-82.16,2
3166,18.6,-3.16,12.81,39.5,49.93,-177.71,2
3192,18.6,-5.42,12.13,76.02,68.17,-249.84,2
3216,18.6,-7.29,9.83,112,78.59,-287.58,2
3241,17.27,-8.41,6.78,133.04,53.23,-302.95,2
3266,12.29,-9.49,3.5,134.5,2.68,-302.34,2
3291,7.64,-10.04,1.18,122.79,-29.64,-287.04,2
3315,3,-8.94,-1.53,102.85,-43.85,-264.05,2
3341,-1.29,-6.97,-3.93,76.45,-61.35,-231.49,2
3366,-5.38,-5.08,-5.55,42.55,-59.88,-188.99,2
3390,-7.12,-3.53,-6.23,10.17,-53.48,-139.23,2
3415,-8.55,-1.94,-6.63,-23.67,-69.76,-87.04,2
3440,-9.01,-1.39,-6.1,-56.48,-84.94,-32.16,2
3465,-8.17,-1.41,-4.61,-80.8,-80,20.1,2
3490,-6.52,-1.28,-3.72,-103.18,-87.32,63.51,2
3514,-4.61,-1.53,-2.5,-126.29,-95.74,97.41,2
3540,-2.94,-3.28,-0.23,-142.08,-92.32,129.55,2
3564,-0.34,-4.53,1.56,-145.68,-83.91,163.75,2
3589,3.49,-5.32,2.93,-145.25,-94.94,193.08,2
3614,6.02,-5.73,4.14,-150.19,-114.27,217.78,2
3639,10.29,-5.37,7.42,-144.77,-78.11,226.98,2
3664,15.77,-3.91,9.85,-112.15,-70.19,215.28,2
3689,18.09,-3,9.79,-85.56,-97.44,189.61,2
3714,18.6,-1.67,9.14,-57.33,-79.88,158.57,2
3738,18.6,-1.27,8.32,-33.61,-48.91,116.74,2
3764,18.6,-2.34,8.85,-16.17,-50.49,80.83,2
3789,17.95,-2.16,8.52,0.84,-54.21,47.35,2
3813,15.68,-1.38,8.49,22.61,-20.25,15.58,2
3838,13.9,-1.78,8.51,51.15,-10.55,-2.04,2
3862,11.9,-2.14,7.14,76.69,-24.46,-8.44,2
3888,10.36,-2.11,5.84,89.07,-30.55,-9.48,2
3912,9.49,-2.05,5.85,96.02,-30.92,-8.62,2
3937,8.42,-2.3,6.98,111.69,-21.47,-11.18,2
3962,7.1,-3.11,7.17,144.93,-20.43,-11.12,2
3986,6.07,-3.48,5.78,176.33,-5.25,-6.06,2
4012,6.37,-3.85,4.57,194.19,11.28,1.74,2
4036,5.79,-4.85,3.81,209.44,-10.67,12.23,2
4061,4.87,-5.01,2.66,220.53,-8.54,22.23,2
4085,5.09,-5.03,1.56,224.8,26.95,29.12,2
4110,6.35,-5.54,0.91,221.94,44.14,40.77,2
4136,8.26,-6.7,1.06,221.27,56.7,51.5,2
4160,10.45,-8.01,-0.46,223.83,34.08,58.51,2
4185,11.56,-7.7,-2.87,206.75,23.9,54.06,2
4210,12.55,-6.64,-3.85,173.16,47.98,35.16,2
4235,12.85,-6.62,-3.49,146.27,37.68,17.47,2
4260,11.66,-6.35,-3.96,122.73,30.85,18.69,2
4284,12.17,-4.82,-4.52,93.1,20.54,21.44,2
4310,13.71,-3.07,-3.9,58.83,14.87,12.9,2
4334,14.18,-2.09,-2.42,31.45,-2.63,-0.03,2
4359,14.62,-1.55,-0.76,15.54,-5.49,-6.55,2
4383,16.33,-0.16,0.44,4.5,5.97,-19.11,2
4408,18.6,0.77,2.45,-2.88,36.52,-46.37,2
4434,18.6,0.16,5.06,-1.11,-13.24,-76.55,2
4458,18.6,-0.21,6.71,6.82,14.63,-118.68,2
4483,18.6,-0.81,7.97,34.32,50.12,-181,2
4507,18.6,-2.99,7.8,57.73,0.67,-235.63,2
4532,16.99,-4.16,6.79,71.45,18.04,-268.19,2
4558,13.76,-4.67,6.55,89.74,24.75,-294.72,2
4582,8.77,-5.76,5.54,119.01,10.36,-302.89,2
4607,3.82,-6.26,2.33,137.85,-13.91,-282.83,2
4632,-0.78,-5.72,-2.53,128.77,-55.98,-241.18,2
4657,-5.05,-4.42,-6.7,89.74,-98.3,-182.65,2
4681,-9.4,-1.92,-9.1,27.37,-154.33,-116.37,2
4707,-9.94,-1.69,-9.63,-30.13,-138.17,-50.39,2
4732,-10.6,-1.78,-8.9,-74.4,-142.56,10.52,2
4756,-9.3,-2.25,-8.31,-108.43,-125.37,59.49,2
4781,-8.34,-3.39,-7.71,-148.79,-99.82,98.14,2
4806,-7.22,-5.16,-5.66,-188.67,-88.84,137.78,2
4831,-6.81,-7.89,-2.87,-221.72,-99.33,188.69,2
4856,-4.55,-9.92,0.98,-238.61,-89.45,245.4,2
4881,-0.87,-11.21,3.64,-231.29,-106.47,299.91,2
4906,3.95,-12.51,6.43,-215.07,-89.64,341.37,2
4930,10.8,-12.19,8.96,-199.64,-48.85,357.65,2
4956,17.92,-12.66,11.49,-161.17,-55.49,349.97,2
4980,18.6,-11.1,11.5,-107.76,17.62,306.98,2
5006,18.6,-7.31,10.81,-98.43,17.19,227.35,2
5031,18.6,-6.54,12.28,-74.28,-26.71,142.41,2
5055,18.6,-5.43,11.99,-33.55,2.07,56.86,2
5081,18.6,-4.68,10.17,1.57,23.65,-44.23,2
5105,18.6,-5.3,8.33,22.3,27.07,-145.88,2
5130,18.6,-6.74,7,40.35,45.18,-224.6,2
5155,18.6,-7.82,6.26,61.76,57.01,-270.02,2
5180,18.6,-8.74,4.7,74.01,44.57,-290.69,2
5205,14.49,-9.12,4.32,83.1,27.37,-301.43,2
5229,10.04,-9.52,3.55,93.28,11.76,-305.82,2
5255,5.32,-8.66,2.58,93.4,-0.19,-302.4,2
5279,-0.18,-7.8,2.12,101.33,-23.6,-281.43,2
5304,-4.29,-6.96,0.21,110.11,-13.36,-243.07,2
5329,-7.23,-5.22,-3.21,104.99,-20.86,-198.01,2
5354,-9.44,-3.41,-5.7,69.8,-28.85,-142.04,2
5379,-10.28,-2.75,-6.97,32.43,-38.17,-79.9,2
5403,-9.99,-2.46,-7.74,-6.66,-39.39,-20.33,2
5428,-9.01,-2.34,-8.58,-52.33,-51.41,33.08,2
5454,-7.88,-2.65,-8.15,-102.82,-54.7,78.39,2
5478,-5.82,-3.51,-6.93,-150.93,-48.85,117.05,2
5503,-3.93,-5.35,-3.85,-192.21,-70.86,162.05,2
5528,-2.4,-6.81,0.01,-211.05,-99.64,222.84,2
5553,2.13,-8.17,3.76,-207.88,-64.33,269.24,2
5577,8.76,-7.9,6.97,-188,-35.55,281.8,2
5602,14.94,-7.2,8.61,-159.46,-38.17,268.63,2
5628,18.6,-5.77,9.27,-134.58,-2.32,224.24,2
5652,18.6,-4.05,11.51,-116.72,23.35,168.75,2
5677,18.6,-1.96,12.4,-81.9,-49.03,125.22,2
5702,18.6,-1.65,11.26,-36.23,-53.72,85.95,2
5727,18.6,-1.91,8.56,-4.59,-41.59,35.03,2
5752,18.6,-1.37,7.56,-1.72,-5.19,-16.31,2
5776,15.88,-1.9,8.56,7.43,-0.31,-50.09,2
5802,12.1,-2.17,8.76,32.37,-7.32,-60.76,2
5826,8.56,-1.97,8.37,53.16,9.87,-61.55,2
5851,7.81,-1.17,8.07,67.06,22.86,-48.44,2
5875,6.7,-0.84,7.8,82.06,-18.91,-29.17,2
5900,5.37,-1.36,7.67,99.99,-11.47,-16.18,2
5926,5.6,-1.21,7.67,122.43,28.29,-6.73,2
5950,5.26,-1.6,6.75,143.89,15.48,4.24,2
5975,4.27,-1.92,5.66,159.01,24.51,17.66,2
5999,4.38,-2.62,4.58,165.9,47.25,35.64,2
6024,5.22,-3.23,3.74,167.49,42.92,56.25,2
6050,3.65,-3.42,3.5,166.02,27.13,72.05,2
6074,3.94,-3.23,4.05,164.13,97.43,81.74,2
6099,6.29,-4.16,4.51,164.07,115.48,94.49,2
6123,7.18,-6.23,4.54,167.91,56.15,121.74,2
6149,9.53,-6.12,3.57,168.77,64.51,138.75,2
6173,13.26,-5.64,2.4,156.39,78.04,129.36,2
6198,16.17,-5.5,1.54,136.33,49.32,103.69,2
6224,15.82,-5.49,1.63,117.49,16.95,79.91,2
6248,14.88,-4.81,1.74,100.6,21.15,57.53,2
6273,15.3,-3.88,1.55,91.15,6.03,33.75,2
6297,12.7,-3.08,0.47,77.91,-21.28,12.47,2
6323,10.32,-2.35,-0.3,60.84,-18.91,-1.43,2
6347,7.91,-1.67,-1.06,39.13,-35.8,-4.11,2
6372,5.95,-1.61,-1.64,24.56,-41.35,6.25,2
6397,5.03,-1.88,-0.98,0.96,-11.83,22.41,2
6421,6.79,-2.06,0.03,-11.9,-15.43,34.67,2
6446,8.15,-2.09,1.04,-21.84,-36.65,41.07,2
6471,9.75,-1.76,2.54,-29.52,-13.66,37.29,2
6496,13,-1.1,4.19,-27.21,-1.1,23.94,2
6521,15.41,-0.54,5.97,-17.33,-10.49,11.62,2
6545,17.53,-0.09,6.9,-9.04,-1.47,-8.99,2
6570,18.6,-0.11,7.77,-7.15,6.28,-41.49,2
6595,18.6,-1,10.46,1.94,-8.97,-80.21,2
6620,18.6,-1,11.97,32,0.79,-131.73,2
6644,18.6,-2.26,11.69,60.78,3.29,-191,2
6669,18.6,-3.93,10.66,81.88,4.93,-237.58,2
6695,16.09,-5.45,9.58,97.18,-5,-259.54,2
6719,13.02,-6.02,8.56,111.94,-13.24,-266.06,2
6744,9.66,-6.27,6.18,119.8,-41.35,-268.26,2
6768,5.63,-6.25,3.75,118.28,-63.85,-259.66,2
6794,0.86,-5.22,0.84,109.32,-76.28,-235.69,2
6819,-1.82,-4.12,-1.51,91.88,-75.19,-200.02,2
6843,-4.94,-0.63,-3.76,60.66,-123.11,-164.72,2
6869,-6.43,-1,-4.87,28.77,-97.38,-124.78,2
6893,-8.61,-0.42,-4.76,7,-90.98,-75.76,2
6918,-7.43,0.73,-5.63,-14.52,-73.91,-27.4,2
6942,-6.51,1.43,-6.57,-51.29,-91.83,7.66,2
6967,-6.33,1.26,-6.05,-92.02,-89.94,35.71,2
6993,-7.13,0.34,-4.58,-116.9,-88.66,75.58,2
7017,-6.25,-0.75,-3.62,-127.57,-78.66,120.95,2
7042,-4.28,-1.73,-3.95,-143,-69.64,159.55,2
7066,-3.07,-3.43,-4.31,-164.16,-72.87,196.01,2
7092,-2.17,-5.91,-3.09,-183.12,-44.27,235.83,2
7117,1,-7.54,-0.7,-201.35,-31.22,270.76,2
7141,3.88,-10.46,2.65,-221.66,-51.59,310.76,2
7167,9.1,-13.82,7.13,-219.46,-47.75,357.29,2
7191,18.6,-15.2,10.52,-204.83,-20.43,373.45,2
7217,18.6,-12.75,13.51,-191.72,-29.94,342.9,2
7241,18.6,-8.26,16.52,-149.46,-91.89,262.35,2
7266,18.6,-6.97,18.97,-72.39,-32.75,137.84,2
7292,18.6,-5.5,17.28,18.4,9.75,-7.83,2
7316,18.6,-5.87,13.24,77.43,76.09,-137.52,2
7341,18.6,-7.52,10.28,111.69,89.02,-227.28,2
7366,18.6,-9.87,9.22,138.64,95.18,-277.65,2
7391,18.6,-10.6,6.97,162.55,67.98,-305.51,2
7416,16.49,-10.8,4.86,165.17,34.51,-324.72,2
7441,11.61,-10.93,3.84,168.46,21.09,-325.51,2
7466,7.63,-10.69,1.57,162.55,-11.89,-312.16,2
7490,2.58,-9.37,-0.07,149.5,-43.91,-286.67,2
7516,-2.15,-6.86,-3.06,128.28,-70.31,-249.41,2
7540,-5,-4.95,-4.92,105.96,-97.08,-207.04,2
7565,-9.08,-3.3,-6.48,59.19,-88.42,-160.76,2
7591,-10.11,-1.73,-7.73,25.41,-52.69,-111.61,2
7615,-11.6,-1.05,-8.53,-9.52,-70.31,-58.14,2
7640,-11.86,-0.78,-8.53,-46.78,-53.05,-3.5,2
7664,-11.61,-1.07,-8.43,-87.51,-64.09,52.6,2
7690,-10.94,-2.19,-7.55,-129.58,-69.15,114.61,2
7715,-8.8,-3.69,-5.3,-160.99,-61.83,175.64,2
7739,-4.49,-5.14,-2.43,-189.34,-38.97,220.58,2
7765,-0.61,-7.5,0.36,-205.74,-54.94,259.85,2
7789,4.47,-10.18,4.03,-208.24,-43.36,298.14,2
7814,13.66,-11.19,7.8,-204.95,-23.6,315.15,2
7839,18.6,-9.87,10.93,-186.78,-51.96,296.5,2
7864,18.6,-6.49,13.01,-145.99,-62.93,239.42,2
7890,18.6,-2.39,13.5,-97.21,-42.02,145.28,2
7914,18.6,-0.55,13,-58,-28.91,64.18,2
7939,18.6,-0.29,12.08,-14.04,-2.02,17.84,2
7963,17.63,-0.85,10.22,16.69,-8.3,-2.89,2
7989,14.72,-1.37,7.36,28.58,-35.49,-14.11,2
8014,11.54,-1.41,5.6,22.98,-26.04,-19.29,2
8038,10.29,-1.59,5.51,14.74,-5.86,-18.99,2
8063,9.48,-1.93,6.28,18.83,-6.41,-19.84,2
8087,7.97,-1.83,6.42,32.06,-6.1,-19.78,2
8113,6.87,-1.45,6.31,42.49,5,-18.07,2
8137,6.22,-1.45,6.49,53.46,9.63,-13.2,2
8162,5.18,-1.51,6.78,72.18,-1.1,-3.93,2
8187,3.57,-1.4,6.74,92.3,-10.61,15.1,2
8211,3.36,-1.43,6.48,109.8,-3.6,37.84,2
8236,3.54,-1.95,6.75,128.04,-5.92,59.67,2
8261,4.68,-2.95,6.83,154.62,8.29,79.61,2
8286,6.31,-3.93,5.98,169.74,9.02,93.27,2
8311,7.77,-4.54,5.18,176.39,10.48,93.88,2
8335,8.78,-5.05,4.86,186.94,23.53,88.33,2
8360,9.59,-6.3,4.2,200.41,48.41,83.27,2
8385,11.44,-7.81,2.77,209.68,71.28,84.55,2
8410,13.61,-7.66,0.27,208.22,62.56,82.53,2
8434,13.82,-6.76,-1.91,188.89,46.03,68.75,2
8460,13.35,-5.79,-3.08,156.39,51.7,49.79,2
8485,12.61,-5.22,-3.21,122.79,67.13,31.86,2
8509,12.58,-4.59,-2.39,89.8,69.93,21.01,2
8534,12.32,-4.03,-1.01,70.17,6.95,19.42,2
8559,10.09,-3.06,-0.89,51.27,-6.65,17.29,2
8584,10.28,-2.21,0.21,31.76,1.76,16.07,2
8608,10.65,-1.2,1.73,15.17,-18.66,15.28,2
8633,11.34,-0.97,3.43,13.34,-41.16,13.57,2
8658,11.78,-0.37,3.84,12.98,-32.26,3.39,2
8683,13.64,0.07,5.59,12.61,6.34,-15.64,2
8708,16.11,0.25,7.74,24.01,11.64,-40.27,2
8732,17.41,0.27,8.62,45.29,-11.47,-62.28,2
8757,17.82,0.37,8,57.85,-10.25,-83.01,2
8782,18.6,0.51,8.25,63.83,17.01,-120.21,2
8807,18.6,-0.36,8.68,75.29,9.08,-165.51,2
8832,16.72,-1.79,8.54,93.4,-2.14,-194.29,2
8856,14.68,-2.27,7.24,106.45,-5.19,-206.49,2
8882,12.11,-2.41,5.77,104.5,-29.46,-215.02,2
8906,9.67,-2.5,4.94,100.54,-44.33,-218.56,2
8931,6.61,-2.95,3.59,98.4,-67.99,-208.68,2
8956,3.89,-2.46,1.84,91.21,-71.83,-195.63,2
8981,1.62,-1.78,-0.28,78.28,-67.02,-185.57,2
9006,-1.49,-0.78,-2.13,60.66,-57.63,-172.22,2
9030,-4.59,-0.16,-3.36,37.24,-56.41,-141.73,2
9055,-4.53,0.36,-3.62,22.24,-65.61,-95.15,2
9081,-6.59,0.22,-4.72,-13.18,-75.8,-42.95,2
9105,-5.14,1.04,-4.41,-39.59,-79.21,-1.55,2
9130,-4.34,1.33,-4.68,-70.26,-83.11,24.97,2
9154,-4.59,0.72,-4.21,-103.43,-81.1,51.44,2
9180,-4.94,-0.09,-3.8,-124.4,-107.81,91.5,2
9204,-4.16,-1.11,-3.36,-140.93,-82.75,130.4,2
9229,-1.4,-2.31,-3.46,-158.79,-69.82,159.79,2
9254,0.22,-3.86,-3.22,-176.84,-83.84,189.91,2
9279,0.66,-5.19,-2.39,-198,-71.16,219.12,2
9304,3.18,-6.81,0.94,-218.24,-44.27,243.2,2
9328,6.52,-7.89,4.54,-214.52,-72.5,271.43,2
9354,10.4,-8.98,8.35,-184.34,-43.42,291.56,2
9379,16.84,-7.97,9.74,-165.93,74.75,281.31,2
9403,18.6,-8.48,13.74,-163.55,-50.25,242.23,2
9429,18.6,-6.66,15.71,-117.51,-51.28,198.63,2
9453,18.6,-4.55,17.61,-70.93,-41.47,117.41,2
9479,18.6,-2.59,15.68,-19.95,-16.28,5.83,2
9503,18.6,-2.91,13.08,19.32,18.17,-97.28,2
9528,18.6,-3.68,10.35,44.38,44.75,-167.28,2
9553,18.6,-3.56,8.38,55.47,46.95,-207.71,2
9578,17.34,-4.43,6.89,65.35,39.81,-221.73,2
9603,15.12,-4.8,5.29,75.17,36.95,-225.15,2
9627,12.44,-4.62,3.73,74.86,25.36,-230.33,2
9653,10.01,-4.43,2.8,71.69,28.35,-232.65,2
9678,7.19,-4.38,2.24,70.78,0.48,-223.38,2
9702,3.53,-3.81,2.03,69.07,-2.5,-206.85,2
9727,1.22,-2.74,1.13,69.01,1.46,-187.16,2
9752,-0.73,-1.64,0.54,63.71,7.19,-166.85,2
9777,-1.49,-1.22,-0.09,67.85,2.98,-142.71,2
9801,-3.98,-0.93,-1.76,62.79,-11.1,-110.88,2
9826,-4.5,0.22,-3.31,46.63,-2.81,-80.33,2
9851,-4.62,0.81,-3.95,26.82,-9.33,-48.07,2
9875,-4.91,0.93,-4.86,3.52,-25.67,-12.1,2
9901,-5.05,1.06,-5.24,-25.26,-34.7,22.9,2
9925,-4.63,1.21,-4.93,-56.29,-30.92,54.73,2
9950,-3.9,1.32,-4.34,-83.67,-36.77,88.94,2
9975,-2.6,0.95,-3.16,-106.41,-50.37,125.4,2
10000,-0.83,-0.88,-1.44,-119.58,-49.94,161.86,2
10025,2.46,-3.17,-0.01,-130.32,-40.37,199.73,2
10049,7.34,-3.41,0.89,-140.44,-67.75,227.84,2
10075,11.8,-3.59,2.71,-156.29,-66.16,225.4,2
10099,16.06,-3.86,7.08,-152.57,-40.55,199.85,2
10124,18.09,-3.16,9.54,-119.65,-67.14,169.55,2
10150,18.6,-2.09,9.5,-90.44,-22.5,130.95,2
10174,18.6,-1.61,9.18,-75.99,-29.82,95.34,2
10199,18.59,-0.78,10.2,-54.77,-17.93,64.12,2
10224,18.31,-0.65,9.93,-30.07,-2.75,28.63,2
10249,16.47,-0.42,9.23,-15.56,-7.08,-3.75,2
10274,13.27,-0.86,8.86,-4.1,-3.91,-25.51,2
10298,10,-1.2,8.21,7.24,-7.57,-30.39,2
10324,8.51,-2.08,7.77,19.5,5.12,-24.66,2
10348,8.06,-2.01,7.02,26.69,3.72,-17.34,2
10373,7.83,-1.18,6.61,32.06,14.26,-18.5,2
10397,7.01,-1.03,6.95,44.19,18.47,-19.96,2
10422,6.36,-1.22,6.53,58.1,23.9,-16.98,2
10448,5.41,-0.74,6.37,64.62,13.17,-3.99,2
10472,5.25,-0.71,6.77,78.22,3.72,19.3,2
10497,5.84,-0.99,6.74,100.6,0.36,39.24,2
10521,7.51,-1.51,5.58,121.02,0.73,46.99,2
10546,7.43,-1.36,3.82,128.58,-0.19,44.42,2
10571,6.83,-1.68,3.21,129.01,25.54,42.41,2
10596,7.12,-2.24,3.62,129.86,42.19,47.23,2
10621,12.57,-0.05,5.77,142.43,88.23,59.42,2
10646,6.61,-2.52,3.3,144.99,14.75,77.23,2
10671,7.46,-3.02,2.21,144.13,25.91,89.12,2
10695,8.46,-2.96,1.19,140.23,33.65,84.97,2
10720,8.93,-3.44,0.36,132.79,43.78,78.27,2
10746,9.28,-3.62,-0.49,118.4,47.74,77.05,2
10770,9.96,-3.55,-0.83,98.04,33.29,78.27,2
10795,10.33,-3.7,-0.75,77.43,20.97,79.91,2
10820,11.52,-3.63,0.32,59.8,-6.96,81.25,2
10845,12.79,-3.09,1.43,48.22,-20.49,76.13,2
10869,13.81,-2.42,1.93,42.67,-15.61,60.1,2
10894,15.14,-1.89,2.35,36.02,-8.3,36.8,2
10920,15.88,-1.7,3.66,29.19,-9.15,13.45,2
10944,16.63,-1.43,4.73,31.02,-16.22,-7.34,2
10969,17.21,-0.77,4.46,32.18,-13.24,-30.45,2
10993,17.14,-0.28,4.74,28.71,-5.55,-58.75,2
11019,17.09,-0.52,5.68,29.68,0.61,-85.57,2
11044,16.86,-0.88,6.1,37.37,4.26,-106.92,2
11068,16.67,-1.02,6.03,46.21,18.04,-127.59,2
11093,16.86,-1.76,5.18,53.4,11.22,-149.17,2
11118,15.49,-2.15,4.32,50.9,3.29,-172.59,2
11143,13.14,-1.83,4.1,46.27,13.35,-189.6,2
11167,10.44,-1.76,4.44,46.39,14.51,-196.67,2
11193,7.69,-1.71,4.36,51.69,4.63,-190.63,2
11218,5.38,-1.33,3.26,55.35,-14.15,-175.51,2
11242,2.96,-1.02,1.62,52.06,-29.39,-155.27,2
11268,1.38,-0.77,-0.34,43.71,-38.97,-135.82,2
11292,-0.51,-0.44,-2.31,22.85,-38.54,-117.4,2
11317,-2.16,0.49,-3.46,-0.56,-36.04,-94.78,2
11342,-3.12,0.01,-3.99,-21.9,-58.85,-61.92,2
11367,-2.72,-0.1,-4.86,-39.83,-47.14,-32.71,2
11392,-1,0.23,-5.81,-65.01,-51.22,-16.86,2
11416,-1.9,-0.15,-5.61,-100.38,-49.82,-6.61,2
11441,-2.47,-1.17,-4.09,-126.84,-40.43,13.51,2
11466,-2.75,-2.04,-2.57,-145.56,-55,48.57,2
11491,-2.45,-2.71,-0.62,-162.08,-65.06,90.16,2
11516,-0.02,-2.73,1.02,-176.54,-63.24,118.69,2
11541,1.15,-3.26,3.78,-180.07,-84.21,144.85,2
11566,2.7,-3.09,6.06,-173.97,-80.31,168.75,2
11590,6.07,-2.79,9.07,-152.63,-54.46,183.08,2
11616,10.21,-3.26,10.67,-109.34,-16.35,183.33,2
11641,12.25,-3.18,11.34,-115.74,-46.89,181.07,2
11666,16.69,-2.58,13.55,-88.79,11.7,165.16,2
11691,18.6,-1.99,14.22,-64.83,-7.57,138.94,2
11715,18.6,-2.22,13.27,-39.89,-26.28,109.48,2
11741,18.6,-1.58,12.21,-28.24,8.11,68.27,2
11765,18.6,-1.01,12.74,-17.51,14.75,11.19,2
11790,18.6,-1.56,13.09,5.29,17.01,-41.37,2
11816,18.6,-1.84,11.96,27.49,36.52,-84.29,2
11840,18.6,-1.32,10.85,43.77,43.04,-124.6,2
11865,18.6,-1.84,10.21,61.15,37.62,-149.96,2
11890,17.79,-2.37,9,83.58,42.43,-162.28,2
11915,16.87,-3.43,6.75,92.49,22.5,-175.57,2
11940,13.97,-3.69,4.58,89.62,12.37,-191.18,2
11965,10.44,-3.09,2.6,87.12,22.43,-200.76,2
11990,6.55,-3.25,0.71,85.29,10.97,-196.43,2
12014,2.47,-4.02,-1.52,74.32,-8.97,-172.89,2
12040,-0.27,-3.76,-3.97,52.43,-34.21,-136.55,2
12064,-1.68,-2.2,-5.28,22.43,-45.06,-109.6,2
12089,-3.44,-1.02,-5.6,-9.28,-43.6,-93.99,2
12114,-5.48,-0.51,-4.65,-29.77,-47.87,-69.78,2
12139,-8.04,-1.04,-3.86,-38.91,-52.75,-29.72,2
12164,-7.06,-1.27,-4.04,-50.68,-36.41,11.19,2
12188,-6.44,-1.28,-4.28,-76.35,-50.8,44.85,2
12213,-6.04,-1.56,-2.28,-99.28,-50.86,75.64,2
12239,-4.34,-3.26,-0.66,-106.35,-53.05,108.33,2
12263,-1.46,-4.46,1.12,-110.99,-34.15,136.44,2
12288,1.9,-5.27,2.48,-111.11,-32.08,156.86,2
12313,5.36,-5.46,3.87,-115.86,-19.21,168.94,2
12338,8.93,-5.25,6,-125.07,-8.78,174.18,2
12362,13.15,-4.01,9.64,-126.96,-10.37,170.95,2
12388,16.57,-3.14,12.3,-114.58,-24.82,155.58,2
12413,18.6,-2.72,13.59,-89.89,-24.46,132.9,2
12438,18.6,-1.63,13.89,-65.87,-25.19,102.05,2
12463,16.37,1.09,11.84,-12.57,-58.97,-21.61,2
12487,14.77,-6.41,8.36,81.69,-4.03,-111.73,2
12513,9.51,-0.68,7.76,38.89,14.39,-30.21,2
12538,10.24,0.55,6.54,13.4,-99.88,7.29,2
12562,10.12,0.51,7.08,11.27,-55.98,5.34,2
12587,8.77,0.57,8.51,31.45,-13.36,-24.17,2
12611,7.3,-0.63,8.37,45.54,1.95,-39.05,2
12637,5.75,-2.17,7.25,63.16,14.32,-32.71,2
12661,6.43,-1.89,6.07,69.38,37.31,-24.78,2
12686,6.91,-0.6,4.97,68.77,25.73,-23.75,2
12711,5.31,-0.49,6,70.96,21.34,-20.39,2
12736,4.76,-0.8,6.63,77.55,34.69,-10.76,2
12761,4.91,-0.62,6.02,79.38,43.35,0.46,2
12785,5.06,-0.81,5.99,76.45,39.87,17.29,2
12810,5.62,-0.6,5.92,67.18,37.19,27.53,2
12836,5.85,0.29,6.45,73.22,53.41,30.77,2
12860,6.22,-0.03,4.97,78.65,63.84,37.35,2
12885,7.18,-0.65,4.03,69.38,67.74,47.6,2
12909,8.39,0.02,3.57,55.35,57.13,50.28,2
12934,8.55,-0.26,3.99,44.38,44.32,49.36,2
12959,8.26,-0.28,4.9,42.3,50.36,51.01,2
12984,8.54,1.13,5.38,44.44,51.95,46.74,2
13009,7.9,0.69,4.76,42.37,23.04,46.31,2
13033,6.68,0.41,4.58,40.35,12.62,53.81,2
13059,6.91,0.17,3.84,31.15,12.31,65.16,2
13083,8.13,0.01,4.06,18.83,-8.36,74.36,2
13108,8.45,1.42,2.52,14.99,-40.43,71.44,2
13133,9.36,-0.07,5.28,20.29,-31.16,54.12,2
13157,9.03,-0.54,5.4,25.11,-20.61,42.05,2
13183,8.33,-0.35,6.75,28.52,-64.88,39.97,2
13207,7.21,-0.44,6.74,41.27,-44.46,38.02,2
13232,5.7,-0.5,5.79,45.17,-47.14,45.58,2
13256,6.15,-0.33,5.31,40.47,-65.55,60.95,2
13282,7.56,-0.8,5.47,41.88,-63.78,66.56,2
13307,7,-0.86,5.01,48.34,-13.3,60.03,2
13331,8.72,-0.85,4.04,46.15,4.26,48.08,2
13356,7.94,-1.28,3.77,42.06,-14.7,42.47,2
13381,7,-1.44,4.11,42.67,14.69,44.67,2
13406,7.63,-1.34,3.67,41.33,31.28,47.96,2
13431,8.29,-1.38,3.83,36.15,3.41,53.75,2
13455,8.52,-1.74,4.53,33.04,-7.26,58.51,2
13480,10.25,-1.45,5.14,32.67,18.47,50.95,2
13505,11.11,-1.56,5.7,34.56,12.56,33.51,2
13530,10.44,-2.07,5.3,38.77,12.25,23.27,2
13554,10.01,-2.05,5.05,37.43,7.92,17.35,2
13579,10.43,-1.58,5.28,37.24,9.26,10.77,2
13605,10.51,-1.6,4.74,35.29,8.04,3.14,2
13629,10.99,-1.39,4.89,32.24,-3.18,-2.22,2
13654,11.68,-0.89,5.08,27.55,-11.89,-9.84,2
13678,12.55,-0.64,5.97,25.96,-9.39,-19.36,2
13704,13.94,-0.61,6.22,26.33,-10.25,-33.2,2
13728,15.43,-0.44,6.94,26.33,-11.41,-53.2,2
13753,16.24,0.19,7.57,30.23,-17.93,-78.2,2
13778,14.93,0.16,7.49,39.99,-22.87,-98.56,2
13803,14.79,-0.04,6.72,43.83,-23.48,-111.79,2
13828,14.57,0.12,6.42,43.04,-24.03,-131.67,2
13852,13.02,-0.02,6.15,43.04,-25,-148.62,2
13878,11.36,-0.53,5.32,45.11,-27.93,-156.12,2
13903,9.31,-0.99,4.56,45.72,-29.09,-157.89,2
13927,7.82,-1.2,2.96,44.5,-32.87,-157.04,2
13953,5.69,-1.26,1.08,35.72,-45.92,-153.62,2
13977,2.68,-1.23,-0.62,18.58,-57.5,-143.62,2
14002,-0.64,-0.89,-1.96,1.39,-82.2,-124.78,2
14026,-4.87,-0.65,-3.14,-21.78,-89.21,-94.78,2
14052,-7.7,-0.4,-3.67,-41.05,-60.19,-54.54,2
14077,-9.12,-0.5,-4.29,-65.87,-45.43,-8.93,2
14101,-9.08,-1.11,-4.59,-94.58,-32.44,39.3,2
14126,-7.6,-2.17,-3.2,-120.01,-13.48,81.25,2
14151,-5.89,-2.75,-1.61,-139.46,-6.35,116.25,2
14176,-3.51,-3.5,-0.25,-155.5,11.22,142.23,2
14201,-2.26,-5.63,1.72,-171.47,6.89,172.59,2
14226,1.04,-7.9,4.84,-178.18,20.73,208.33,2
14251,6.95,-8.84,7.48,-173.97,31.64,227.41,2
14275,14.64,-7.8,10.99,-161.9,35.67,212.11,2
14301,18.6,-6.46,14.29,-152.02,29.81,173.57,2
14325,18.6,-4.54,16.53,-110.26,28.71,129.06,2
14351,18.6,-3.87,17.53,-73.06,24.45,81.31,2
14376,18.6,-2.75,17,-38.79,11.58,35.83,2
14400,18.6,-2.21,16.6,-13.3,8.29,-13.32,2
14426,18.6,-2.28,16.24,12.55,12.31,-63.62,2
14450,18.6,-2.76,14.55,41.33,7.8,-121.18,2
14475,18.6,-3.99,12.7,62.61,1.22,-176,2
14501,18.6,-5.39,11.12,84.13,-2.26,-217.34,2
14525,16.3,-6.83,8.21,99.74,-12.57,-241.12,2
14550,11.28,-7.53,5.49,101.51,-33.78,-250.45,2
14575,6.23,-6.84,3.98,94.62,-45.13,-246.85,2
14600,1.72,-6.06,2.41,89.86,-57.44,-230.63,2
14624,-2.62,-4.96,0.35,77.49,-65.37,-203.93,2
14650,-6.45,-3.18,-1.41,58.89,-74.52,-165.63,2
14675,-9.34,-1.55,-3.15,35.11,-73.48,-117.04,2
14699,-10.15,-0.23,-3.86,8.65,-59.52,-65.03,2
14724,-9.69,0.41,-4.14,-13.91,-43.42,-17.04,2
14749,-8.22,0.38,-3.98,-36.48,-25.86,23.69,2
14774,-6.73,-0.37,-3.13,-62.15,-13.05,59,2
14799,-4.74,-1.44,-1.58,-85.07,-10.13,94.73,2
14823,-2.67,-2.52,-0.06,-104.58,-19.27,128.14,2
14849,-0.2,-3.02,2.65,-118.12,-10.55,154.3,2
14873,3.24,-3.55,4.73,-119.34,5.97,168.45,2
14898,5.69,-4.9,5.63,-117.15,-8.66,178.2,2
14923,8.62,-4.29,8.16,-110.32,-0.43,184.67,2
14948,13.57,-3.34,9.47,-101.47,15.85,168.81,2
14973,16.14,-2.39,11.41,-83.55,0.48,141.37,2
14998,17.17,-1.7,11.91,-61.96,1.52,110.7,2
15023,18.08,-0.77,11.58,-44.4,-6.77,82.66,2
15047,18.18,-0.6,10.34,-24.46,-14.21,51.62,2
15073,17.18,-0.58,8.43,-7.94,-14.46,30.16,2
15098,11.02,4.02,2.41,-82.69,-92.81,-77.28,2
15122,11.16,-0.79,5.09,0.9,-31.35,-45.15,2
15147,8.21,-0.45,4.18,-4.59,-43.66,-18.99,2
15172,7.28,-0.78,4.57,-12.76,-18.42,-6.73,2
15197,7.69,-1.08,5.31,-10.32,-0.37,-7.53,2
15221,7.82,-1.2,5.82,0.48,10.24,-19.11,2
15246,7.72,-1.72,5.82,7,19.75,-27.04,2
15271,6.54,-1.55,5.71,7.3,15.3,-25.57,2
15296,5.44,-1.42,6.1,8.83,13.04,-15.09,2
15321,5.46,-0.93,6.36,11.94,17.98,-1.98,2
15345,5.98,-0.64,6.66,10.96,-3.05,9.91,2
15370,6,-0.23,7.6,17.3,-8.72,19.79,2
15395,6.49,-0.25,7.73,31.57,6.15,24.67,2
15419,7.63,-0.59,7.31,46.15,12.98,22.6,2
15445,7.53,-0.86,6.83,55.96,15.85,18.88,2
15469,6.77,-0.94,6.63,62.61,29.75,16.99,2
15494,6.7,-0.91,6.02,66.08,27.5,19.36,2
15518,6.2,-1.42,5.88,66.08,20.73,30.64,2
15544,6.12,-1.45,6.42,70.17,25.91,45.52,2
15569,7.64,-1.56,6.51,83.1,20.36,56.07,2
15593,8.76,-1.82,5.83,95.11,13.59,59.49,2
15618,8.59,-1.93,4.5,97.24,5.97,54.36,2
15642,8.13,-2.16,3.99,92.79,14.14,49.85,2
15668,7.64,-2.37,4.26,86.39,10.06,50.95,2
15693,7.17,-2.4,4.26,84.93,6.95,55.83,2
15717,6.94,-2.35,4.12,85.41,5.12,62.72,2
15742,7.95,-2.05,3.7,82.91,13.53,65.1,2
15767,8.68,-1.9,3.31,73.04,10.91,59.91,2
15792,8.84,-2.37,3.77,64.74,14.75,54.18,2
15816,9.7,-2.57,4.33,62.73,15.12,51.25,2
15841,10.45,-2.17,4.13,59.74,4.32,45.95,2
15867,10.23,-1.74,4.11,53.89,2.92,36.5,2
15891,10.18,-1.61,4.36,50.78,8.41,25.77,2
15916,10.16,-1.36,4.22,49.56,4.39,16.01,2
15940,9.02,-1.26,3.95,45.66,1.09,11.5,2
15965,8.69,-1.21,3.89,40.17,6.58,9,2
15991,8.44,-1.28,3.87,34.38,-1.47,8.27,2
16015,8.5,-1.16,3.83,27.67,-4.15,9.73,2
16040,9.11,-0.89,4.11,21.27,-1.28,6.68,2
16064,10.12,-0.42,4.68,17.73,-6.53,0.89,2
16089,10.24,-0.5,5.37,18.52,-23.66,1.32,2
16113,11.75,-0.25,6.46,21.88,-13.3,0.95,2
16139,13.89,0.75,6.16,26.02,-14.03,-14.6,2
16164,14.68,1.66,6.18,21.08,-23.48,-36.61,2
16188,13.77,3.08,7.92,12.73,-11.04,-55.64,2
16213,13.77,1.64,9.49,20.17,-35.06,-59.66,2
16238,16.22,1.04,9.78,39.44,-44.21,-70.03,2
16263,17.94,0.8,8.22,58.04,-39.15,-101.43,2
16287,17.69,0.23,6.38,62.3,-26.83,-142.28,2
16313,14.7,-0.63,6.05,58.46,-29.09,-176.55,2
16338,10.3,-1.67,5.29,60.54,-46.77,-182.46,2
16362,7.38,-2.42,3.56,62.43,-55.92,-166.18,2
16388,5.64,-2.3,0.64,52.49,-58.6,-155.88,2
16412,3.31,-1.9,-1.89,32.18,-62.99,-153.5,2
16437,0.3,-2.1,-3.44,6.63,-61.59,-143.68,2
16462,-2.72,-1.83,-3.8,-18.61,-51.04,-121,2
16487,-5.21,-1.18,-4.1,-40.99,-46.28,-91,2
16512,-7.01,-0.7,-4.53,-66.78,-44.27,-54.42,2
16536,-8.44,-0.96,-4.36,-95.5,-41.35,-12.47,2
16562,-9.04,-3.82,-3.23,-122.21,-28.91,37.72,2
16586,-8.14,-2.53,-2,-141.72,-21.04,84.85,2
16611,-6.52,-3.32,-1.12,-162.45,-19.88,125.77,2
16637,-4.76,-5.12,-0.1,-189.28,-13.66,166.86,2
16661,-1.21,-7.22,2.99,-208.55,-6.59,208.75,2
16686,4.25,-8.36,6.73,-209.71,3.11,235.7,2
16710,10.67,-9.27,11.2,-203.85,2.01,242.53,2
16736,16.14,-7.81,13.94,-185.13,8.17,230.58,2
16761,18.6,-6.09,16.2,-150.8,-1.41,193.75,2
16786,18.6,-4.81,18.38,-109.89,-9.03,144.91,2
16811,18.6,-3.39,19.31,-60.07,-42.69,93.08,2
16835,18.6,-1.86,17.75,-13.37,-27.93,37.72,2
16861,18.6,-1.07,14.8,16.88,-13.42,-35.51,2
16885,18.6,-2.81,12.47,38.52,-5.31,-105.94,2
16910,18.6,-4.03,10.98,56.45,-8.97,-156.67,2
16936,18.6,-5.17,8.75,72.73,-15.37,-197.65,2
16960,18.6,-6.78,7.06,79.01,-17.57,-231.55,2
16985,14.8,-7.98,5.47,82.36,-27.14,-254.29,2
17010,9.25,-8.27,4.24,82.18,-31.59,-259.54,2
17035,4.49,-7.86,2.24,80.41,-56.47,-250.69,2
17060,-1.53,-6.88,0.14,67.67,-52.87,-226.49,2
17085,-5.99,-5.2,-0.69,44.32,-60.86,-188.38,2
17110,-8.89,-3.23,-2.63,22.24,-71.22,-137.65,2
17134,-11.1,-1.79,-3.62,2.12,-62.56,-82.95,2
17159,-11.78,0.78,-4.12,-25.8,-59.82,-34.54,2
17184,-11.09,0.54,-3.78,-47.45,-28.05,13.27,2
17209,-10.97,-0.45,-3.79,-69.89,-19.7,64.61,2
17234,-8.54,-2,-2.55,-88.91,3.04,113.33,2
17259,-4.24,-3.53,-1.39,-108.55,9.87,147.72,2
17284,-1.36,-5.08,0.87,-133.97,4.87,174.55,2
17308,3.02,-6.52,4.79,-135.8,16.52,194.67,2
17334,8.79,-6.46,7.86,-118.49,18.04,200.46,2
17359,12.22,-5.66,9.17,-104.58,8.65,189.97,2
17383,16.26,-4.46,10.33,-86.11,29.32,163.81,2
17409,18.6,-2.75,11.53,-71.11,22.74,123.02,2
17433,18.15,-1.94,12.42,-53.79,-10.13,88.51,2
17458,16.86,-1.54,11.71,-32.45,-12.08,66.86,2
17483,18.6,10.42,19.98,65.96,211.52,-146.61,2
17508,6.41,-7.64,13.37,151.02,185.3,-56.73,2
17534,4.4,-2.63,6,43.46,10.54,6.74,2
17558,7.95,-0.93,5.13,13.46,-51.96,33.63,2
17583,10.37,-0.85,7.25,1.51,-8.72,16.01,2
17607,9.92,-2.6,9.17,26.45,7.98,-16.98,2
17632,7.82,-1.47,10.41,41.82,-4.94,-18.87,2
17658,7.54,-0.33,9.49,53.71,-3.3,-23.2,2
17682,6.4,-0.81,8.74,65.23,16.7,-24.84,2
17707,5.39,-1.23,7.62,75.84,7.92,-18.32,2
17731,5.02,-1.25,6.72,85.84,-3.78,-3.99,2
17756,4.58,-0.62,5.32,88.22,13.11,4,2
17781,4.38,-1.03,5.21,84.32,47.98,13.02,2
17806,5.09,-1.39,5.64,85.05,67.01,26.56,2
17831,6.14,-1.37,5.76,95.11,53.71,41.19,2
17855,5.13,-1.62,4.46,98.89,61.34,55.83,2
17880,5.83,-2.19,4.12,95.78,66.03,74.91,2
17905,7.71,-2,4.2,92.49,59.39,81.99,2
17930,8.55,-1.73,4.01,92.67,51.58,74.79,2
17955,7.82,-2.22,4.01,91.21,50.12,73.14,2
17979,8.53,-2.86,4.09,85.54,54.2,82.23,2
18005,10.23,-2.76,3.9,76.15,41.28,89.24,2
18029,11.39,-1.82,3.17,63.46,10.67,85.28,2
18054,10.78,-1.65,3.94,51.15,-0.92,74.3,2
18078,10.47,-1.7,4.32,49.5,-4.7,64,2
18104,9.91,-1.72,4.21,49.62,-13.3,56.07,2
18129,9.56,-1.67,4.43,54.74,-9.27,49.85,2
18153,9.68,-1.48,4.06,53.46,0.06,42.29,2
18178,9.7,-1.38,3.74,48.46,3.11,33.57,2
18202,10.05,-1.32,3.58,39.26,-3.18,25.83,2
18228,10.53,-1.08,4.02,24.5,-16.65,20.64,2
18253,10.57,-0.93,5.37,16.33,-16.04,15.52,2
18277,12.03,-0.26,5.69,17.12,-1.77,2.72,2
18302,12.08,0.4,5.75,11.57,-10,-15.45,2
18327,11.84,0.82,6.43,3.59,-4.58,-30.94,2
18352,11.11,0.77,6.88,3.52,-7.2,-40.45,2
18376,12.22,-1.13,8.29,10.29,19.26,-45.33,2
18401,9.57,1.72,7.81,10.17,7.5,-50.15,2
18427,12.22,1.49,9.14,20.96,23.53,-64.29,2
18451,12.82,0.52,9.37,36.88,21.64,-77.1,2
18476,11.33,0.73,8.25,45.72,15.91,-87.4,2
18500,12.25,1.23,8.04,49.8,54.02,-99.66,2
18526,12.97,1.87,8.03,54.07,30.48,-113.93,2
18551,11.37,1.06,8.07,57.97,2.86,-115.76,2
18575,11.34,0.82,7.49,67.18,20.79,-119.23,2
18601,11.03,1.35,6.18,69.32,25.36,-133.38,2
18625,8.57,1.17,5.15,65.78,27.25,-145.57,2
18650,5.8,0.5,4.43,68.77,25,-142.04,2
18674,3.25,-0.11,2.55,68.16,12.07,-125.02,2
18700,1.89,-0.32,0.61,57.49,13.29,-105.63,2
18725,1.58,-0.69,-1.42,42.18,-3.3,-88.01,2
18749,0.84,-1,-3.44,19.5,-46.89,-75.27,2
18774,-2.43,-2.07,-5.24,-13.06,-84.09,-66.55,2
18799,-4.5,-2.69,-5.82,-42.45,-67.5,-48.68,2
18824,-6.24,-3.32,-5.98,-65.74,-65.92,-18.44,2
18848,-6.41,-4.24,-6.11,-93.06,-62.44,16.74,2
18874,-5.17,-4.95,-5.88,-130.56,-74.39,49.85,2
18899,-4.7,-5.46,-3.58,-169.28,-95.31,80.1,2
18923,-2.39,-4.57,2.41,-196.78,-35.13,115.64,2
18949,-3.61,-5.43,4.55,-197.75,-70.25,154.67,2
18973,0.97,-6.48,6.61,-208.67,-79.76,196.37,2
18998,6.37,-7.26,10.8,-210.5,-32.44,224.85,2
19024,15.73,-7.93,16.25,-198.97,-3.05,222.41,2
19048,17.35,-6.48,19.14,-180.68,-16.96,202.23,2
19073,18.6,-5.83,19.98,-134.83,-35.06,177.47,2
19098,18.6,-4.04,19.98,-74.52,-15,128.51,2
19123,18.6,-2.39,19.98,-29.28,-2.63,44.3,2
19149,18.6,-1.18,19.98,4.68,18.78,-55.57,2
19173,18.6,-1.95,19.98,37.91,20.73,-131.73,2
19198,18.6,-3.05,19.98,77.79,25.73,-167.46,2
19223,18.6,-3.86,17.61,121.39,17.74,-186.3,2
19248,18.6,-5.88,14.58,153.22,4.75,-206.12,2
19272,16.42,-8.03,11.22,171.45,4.26,-229.54,2
19298,12.27,-8.88,7.95,178.83,-0.25,-251.55,2
19323,5.98,-10.13,5.26,183.46,-9.82,-249.23,2
19347,0.63,-9.94,1.29,174.56,-19.76,-221.61,2
19373,-3.56,-8.45,-2,157.67,-27.08,-187.59,2
19397,-6.26,-6.76,-6.19,124.68,-35.49,-150.76,2
19423,-8.69,-5.11,-8.51,78.58,-31.1,-114.66,2
19448,-10.15,-3.77,-9.41,33.46,-16.53,-77.34,2
19472,-9.74,-3.5,-9.78,-0.93,-11.71,-40.09,2
19497,-9.85,-3.59,-9.88,-44.4,-0.92,-3.75,2
19522,-8.26,-2.91,-7.88,-92.51,8.23,26.07,2
19547,-6.01,-3.65,-4.65,-131.78,-22.44,63.08,2
19571,-5.12,-5.53,0.27,-154.34,-67.63,118.02,2
19596,-0.6,-4.69,3.81,-157.08,-33.24,161.62,2
19622,8.6,-1.73,5.19,-174.22,7.07,148.2,2
19646,9.89,-1.18,9.73,-197.14,-29.15,121.68,2
19671,10.14,-1.87,15.59,-187.51,-26.28,128.45,2
19696,13.59,0.56,18.23,-151.9,-26.65,133.39,2
19721,16.42,2.19,18.45,-109.22,-17.14,104,2
19747,16.58,2.62,17.7,-70.87,-10.8,68.69,2
19771,15.18,2.48,15.36,-43.24,-13.05,41.19,2
19796,13.12,1.91,12.9,-25.07,-7.02,23.02,2
19821,10.72,1.43,10.95,-16.84,-6.16,14.55,2
19846,9.87,1.62,8.77,-8.73,-5.74,11.38,2
19870,9.42,1.53,7.11,-12.21,9.63,1.44,2
19895,8.5,0.79,6.76,-15.68,15.79,-8.87,2
19920,6.65,0.12,7.07,-13.37,0.54,-6.37,2
19944,6.38,0.26,7.27,-4.95,3.23,0.28,2
19970,6.74,0.39,6.64,3.59,4.81,2.35,2
19994,7,0.04,6.23,6.09,12.01,-0.51,2
20019,6.72,-0.53,6.15,6.63,13.96,-1.67,2
20043,7,-0.87,6.16,6.69,16.28,-2.4,2
20068,6.77,-0.74,6.68,0.84,8.78,-4.48,2
20093,6.54,-1.18,8.32,0.41,4.63,-2.22,2
20117,6.91,-1.06,9.16,12.24,0.54,-1.31,2
20142,7.12,-0.72,9.01,21.57,7.43,-6.31,2
20166,6.87,-0.57,9.23,29.13,7.68,-11.86,2
20192,6.26,-0.63,9.48,37.61,11.64,-12.53,2
20217,6.42,-0.52,9.45,45.23,15.18,-12.04,2
20241,5.4,-0.05,9.61,50.6,28.9,-15.33,2
20266,4.96,0.78,9.45,62,43.84,-18.62,2
20291,3.55,0.55,8.71,72.67,51.7,-11.06,2
20316,2.74,0.25,7.68,73.71,47.68,7.53,2
20340,2.91,1.3,8.12,68.22,77.49,23.33,2
20365,4.64,1.56,8.54,73.22,69.99,31.56,2
20390,3.83,0.93,8.4,78.34,52.13,41.31,2
20415,3.6,0.56,7.56,78.89,34.93,55.52,2
20440,4.22,0.48,6.48,71.15,11.58,70.16,2
20464,5.9,1.05,5.58,58.77,-42.87,84.42,2
20489,6.17,0.65,6.09,49.07,-81.41,88.45,2
20515,7.1,0.51,6.62,49.19,-56.28,76.25,2
20539,8.44,0.72,6.35,57,-43.17,59.67,2
20564,7.9,0.96,6.02,64.93,-28.66,42.9,2
20588,7.59,0.45,6.32,75.78,31.89,29.85,2
20613,8.25,0.32,5.71,83.52,48.78,31.25,2
20638,8.35,-0.18,4.93,80.6,37.68,41.13,2
20663,8.15,0.41,3.95,70.05,15.3,53.57,2
20688,8.22,1.14,3.22,54.07,5.91,56.07,2
20712,7.77,1.21,3.59,38.28,12.25,52.11,2
20738,7.69,1.09,4.33,31.33,18.9,50.58,2
20762,8.11,1.14,4.48,27.73,24.93,49.42,2
20787,8.87,1.07,4.77,25.05,9.51,47.96,2
20811,8.87,1.1,4.65,21.69,8.78,42.29,2
20836,9.13,1.28,4.5,14.19,14.93,31.74,2
20862,8.7,0.9,5.22,6.88,20.3,21.25,2
20886,8.09,0.65,5.92,6.09,39.69,15.46,2
20911,8.47,1.04,6.02,7.43,41.15,11.68,2
20935,7.82,1.14,5.78,6.39,17.07,8.27,2
20960,6.64,1.08,5.8,4.68,14.02,6.68,2
20985,6.73,0.94,5.67,2,4.26,11.92,2
21009,7.64,1.09,5.95,-1.17,-47.26,16.25,2
21035,6.81,0.85,5.91,-5.13,-57.99,14.61,2
21059,6.59,0.97,6.01,-11.29,-36.77,11.32,2
21084,6.39,1.01,6.53,-16.48,-5.31,6.01,2
21108,7.18,1.06,7.19,-16.41,-1.53,7.35,2
21133,7.36,1.42,7.56,-12.63,-16.53,14.24,2
21159,8.23,2.29,7.93,-14.34,-14.76,18.14,2
21183,10.07,2.83,9.1,-14.65,-8.24,12.29,2
21208,11.57,2.54,10.72,-8.79,-26.53,5.89,2
21232,13.66,2.87,12.12,3.71,0.3,-0.76,2
21258,17.9,4.46,12.35,19.56,-7.75,-24.66,2
21283,18.56,3.84,12.4,29.68,-26.71,-64.72,2
21307,17.99,2.79,13.28,40.6,17.31,-98.93,2
21332,18.6,4.93,13.27,59.74,36.58,-128.38,2
21357,18.6,2.44,13.61,91.08,-20.13,-165.94,2
21382,16.6,0.79,12.18,116.08,1.46,-197.34,2
21407,13.73,-0.93,10.33,137.36,4.26,-210.82,2
21432,10.03,-3.46,8.53,156.57,-21.16,-203.62,2
21457,6.85,-4.65,4.77,169.8,-52.26,-181.73,2
21482,3.92,-4.31,0.62,157.61,-67.32,-172.46,2
21507,0.4,-4.23,-2.57,134.5,-74.82,-168.38,2
21531,-4.59,-4.21,-5.33,108.1,-95.67,-146.85,2
21557,-10.04,-3.77,-7.41,76.82,-74.64,-104.6,2
21582,-11.56,-3.97,-9.22,43.1,-65.37,-45.76,2
21606,-11.17,-3.75,-10.74,-4.59,-80.37,14.55,2
21632,-9.83,-3.47,-10.73,-63.73,-83.91,58.21,2
21656,-8.48,-3.54,-8.51,-121.6,-78.54,90.34,2
21681,-8.77,-4.21,-5.24,-158.91,-84.82,129.67,2
21706,-8.23,-5.67,-3.37,-179.89,-75.37,177.78,2
21731,-6.11,-6.83,-1.57,-204.03,-47.14,219.3,2
21757,-4.78,-7.99,1.48,-218.36,-32.26,258.81,2
21781,-0.04,-10.06,4.02,-223.18,-30.49,295.34,2
21806,2.91,-13.32,8.02,-222.33,-26.35,328.93,2
21831,13.96,-14.73,13.25,-207.27,57.92,335.09,2
21856,18.6,-11.99,16.01,-212.57,-39.09,309.24,2
21882,18.6,-11.13,19.98,-171.11,-55.98,260.28,2
21906,18.6,-5.61,19.98,-100.32,18.47,161.98,2
21932,18.6,-2.51,19.98,-13.49,6.09,46.31,2
21956,18.6,-2.61,18.35,37.67,19.32,-43.93,2
21981,18.6,-2.44,14.35,52.43,6.09,-107.16,2
22007,18.6,-3.96,13.06,52.73,-12.57,-156.12,2
22031,18.6,-4.99,13.45,72.85,-11.04,-192.59,2
22056,18.6,-6.53,12.03,107.55,-9.58,-229.48,2
22081,16.63,-8.49,9.05,131.08,-13.3,-258.26,2
22106,10.8,-9.38,6.3,140.11,-22.14,-268.56,2
22130,6.01,-9.32,3.63,138.52,-31.04,-264.11,2
22156,1.21,-8.63,1.46,130.6,-41.83,-247.22,2
22181,-2.73,-7.12,-1.13,118.95,-41.22,-217.22,2
22206,-6.51,-5.31,-3.74,97.43,-31.53,-181.73,2
22231,-8.43,-3.65,-5.42,74.93,-11.04,-141.98,2
22255,-8.48,-2.41,-7.03,48.89,-7.02,-101.55,2
22280,-9.32,-2.02,-8.43,10.72,-18.36,-61.61,2
22306,-8.61,-1.38,-8.48,-32.63,-10.61,-22.53,2
22330,-8.3,-0.61,-6.99,-79.71,-6.59,11.13,2
22355,-7.98,-0.75,-4.46,-114.16,-9.88,49.61,2
22379,-7.06,-2.11,-2.37,-135.99,-18.72,99.67,2
22405,-3.55,-2.53,-0.36,-147.82,-8.36,142.17,2
22429,0.99,-2.47,2.24,-165.19,-11.96,164.48,2
22454,5.7,-4.3,6.56,-176.29,-19.03,182.78,2
22480,12.56,-3.92,11.19,-176.96,-30.55,194.55,2
22504,17.69,-2.19,15.58,-163.06,-25,172.9,2
22530,18.6,-0.26,17.67,-122.27,-26.47,126.44,2
22554,18.6,1.44,16.58,-72.94,-9.27,76.74,2
22579,17.79,2.53,13.69,-40.32,-1.96,34.42,2
22605,14.16,2.61,11,-25.68,0.91,11.25,2
22629,10.29,2.18,9.46,-23.18,-8.54,12.05,2
22654,8.32,1.35,8.79,-21.23,-20.25,27.53,2
22678,7.85,0.9,8.17,-19.04,-18.78,40.28,2
22704,9.75,1.04,8.31,-12.94,3.84,33.14,2
22728,10.18,0.71,8.31,-8.06,-0.19,15.28,2
22753,8.76,-0.34,8.3,0.66,1.46,4,2
22778,8.41,-0.79,7.36,8.65,10.06,-1.98,2
22802,7.85,-0.5,6.97,8.04,5.54,-4.36,2
22827,7.04,-0.96,7.38,9.5,-5,-0.64,2
22851,6.94,-1.07,7.46,15.78,-7.44,3.02,2
22876,6.89,-0.63,6.97,21.88,-7.2,0.46,2
22901,6.26,-0.2,6.19,29.01,3.47,-1.98,2
22926,5.9,-0.56,5.73,35.35,16.64,1.68,2
22951,6.42,-0.64,5.58,38.71,10.67,8.14,2
22975,6.43,-0.53,5.53,37.37,7.07,10.46,2
23000,5.84,-0.28,6.05,40.84,11.4,14.85,2
23024,5.68,-0.61,6.24,50.29,21.21,21.38,2
23050,6.37,-0.7,6.08,57.85,24.87,27.96,2
23075,7.08,-0.83,5.65,61.45,19.2,31.8,2
23099,6.48,-1,5.37,59.8,21.64,32.17,2
23124,6.61,-0.85,5.99,61.15,13.84,37.9,2
23149,5.45,-1.39,6.56,68.89,0.67,51.13,2
23174,5.06,-2.01,6.8,78.22,49.08,70.16,2
23198,7.22,-2.28,7.03,88.83,63.53,89.97,2
23223,9.15,-2.45,6.59,100.84,40,102.96,2
23249,9.88,-2.83,5.4,107.91,12.37,106.99,2
23273,9.84,-2.9,4.3,104.25,18.23,104.49,2
23298,10.67,-2.91,4.03,96.94,37.62,97.29,2
23322,12.02,-2.53,3.83,92.43,35,86.44,2
23348,12.39,-2.46,3.27,86.69,20.3,68.51,2
23373,12.06,-2.12,2.27,76.76,8.47,49.3,2
23397,11.13,-1.7,1.38,60.47,-1.59,31.25,2
23423,10.02,-1.26,1.04,41.33,-8.6,20.46,2
23447,9.41,-0.67,1.93,26.27,-20.74,16.86,2
23472,8.66,-0.4,2.44,18.34,-26.41,14.24,2
23496,8.28,0,2.48,7.67,-21.28,11.13,2
23521,8.25,0.16,3.48,-1.6,-20.86,11.07,2
23547,9.17,-0.02,4.59,-4.4,-34.27,14.3,2
23571,10.39,0.31,5.93,-3.79,-30.25,12.66,2
23596,12.23,0.85,6.73,-2.7,-8.42,1.56,2
23620,14.48,1.27,8.18,-3.67,-23.36,-10.88,2
23645,16.95,1.48,10.56,1.51,-22.69,-26.67,2
23671,18.6,2.11,11.81,16.45,-21.16,-52.4,2
23695,18.6,1.7,12.34,32.85,-39.46,-83.68,2
23720,18.6,1.25,12.37,51.76,-17.32,-121.67,2
23745,18.6,-0.07,11.99,79.44,23.59,-168.93,2
23770,18.6,-1.73,10.55,106.94,23.04,-205.94,2
23795,15.61,-2.96,8.17,122.91,2.62,-227.52,2
23820,11.83,-3.62,6.14,127.97,13.11,-235.39,2
23845,9.08,-4.03,4.27,130.66,2.56,-228.07,2
23870,5.88,-4.48,2.47,130.17,-42.32,-210.51,2
23895,2.09,-4.53,0.42,122,-57.5,-191.91,2
23919,-2.38,-3.75,-1.95,109.86,-75.49,-168.99,2
23945,-8.74,-3.25,-5.18,97.55,-91.77,-138.44,2
23970,-13.36,-4.4,-8.32,73.83,-50.06,-94.6,2
23994,-15.37,-4.83,-11.13,33.89,-31.28,-27.4,2
24020,-13.09,-5.48,-13.36,-22.7,-39.64,48.81,2
24044,-10.75,-5.79,-13.53,-100.5,-62.75,107.11,2
24069,-8.19,-6.44,-10.98,-174.83,-60.06,144.42,2
24094,-5.87,-7.81,-7.76,-232.63,-46.47,179.42,2
24119,-4.32,-9.93,-3.83,-275.86,-66.53,231.8,2
24145,-0.65,-12.06,0.5,-306.78,-47.63,281.31,2
24169,3.98,-13.54,5.96,-322.63,-27.26,318.02,2
24194,11.32,-13.22,13.61,-311.11,9.51,330.28,2
24219,18.6,-15.17,19.98,-284.4,-19.09,319,2
24244,18.6,-13.38,19.98,-195.56,-71.16,296.25,2
24270,18.6,-8.87,19.98,-62.02,-54.88,210.28,2
24294,18.6,-5.01,19.98,15.78,1.22,64.49,2
24319,18.6,-4.43,18.54,64.68,72.31,-77.95,2
24344,18.6,-6.06,14.67,81.82,29.51,-149.48,2
24369,18.6,-6.8,12.38,79.62,-7.26,-165.15,2
24393,18.6,-6.89,11.69,86.57,-31.89,-179.41,2
24419,18.6,-7.9,9.93,103.04,-42.69,-213.07,2
24444,15.88,-8.31,7.64,112.24,-37.99,-249.35,2
24469,10.87,-9.28,6.78,123.28,-31.83,-272.34,2
24494,6.45,-9.12,4.45,135.9,-27.38,-278.32,2
24518,0.9,-7.97,1.57,136.82,-50.67,-265.39,2
24544,-4.85,-6.02,-1.7,124.01,-56.41,-235.69,2
24569,-7.95,-4.39,-3.89,104.56,-43.66,-195.57,2
24593,-10.51,-2.53,-6.11,77.73,-56.1,-147.71,2
24619,-11.93,-1.14,-7.37,49.5,-29.76,-95.51,2
24643,-12.09,-0.91,-8.38,19.74,-16.1,-41.12,2
24668,-11.4,-1.24,-9.47,-22.27,-14.27,13.21,2
24693,-9.87,-1.45,-9.1,-75.62,-16.1,59.55,2
24718,-8,-2.32,-6.95,-123.79,-25.8,102.29,2
24743,-6.2,-3.87,-3.77,-155.5,-15.25,144.36,2
24768,-4.52,-5.32,-0.17,-167.39,-6.47,186.86,2
24793,-0.07,-7.21,3.29,-166.66,13.59,224.61,2
24817,7.01,-7.19,6.55,-169.28,26.89,239.85,2
24843,14.84,-6.98,11,-176.54,28.9,227.11,2
24868,18.6,-5.56,16.25,-168.12,10.54,196.62,2
24892,18.6,-2.8,18.95,-124.16,-22.63,155.95,2
24918,18.6,0.22,16.89,-70.32,-15.37,103.88,2
24942,18.6,0.98,13.78,-35.2,-9.46,59.49,2
24968,17.83,0.74,10.8,-18.55,-6.28,29.18,2
24992,15.26,0.22,9.14,-19.04,-14.21,10.58,2
25017,13.28,0.36,9.53,-23.73,-15.67,-3.93,2
25042,11.69,0,10.51,-13.85,-14.58,-13.99,2
25067,10.45,-1.21,9.87,5.9,-20.67,-20.82,2
25092,9.18,-1.64,7.84,20.11,-13.66,-28.5,2
25116,8.29,-1.31,6.12,15.48,-6.47,-41.12,2
25141,6.75,-0.79,6.28,3.16,11.95,-54.35,2
25167,5.53,-1.45,7.31,6.76,-0.43,-57.89,2
25191,4.07,-0.63,7.7,21.15,14.26,-52.1,2
25216,3.86,0.34,8,36.63,30.06,-38.2,2
25240,3.82,0.34,8.19,54.19,27.37,-12.53,2
25265,4.3,0.43,7.33,68.58,19.63,-7.22,2
25290,4.57,0.3,6.85,79.32,45.54,0.52,2
25315,5.22,-0.03,6.5,92.97,61.76,11.19,2
25340,5.27,-0.3,6.43,99.19,95.3,19.36,2
25364,7.24,-0.15,5.38,110.47,53.35,36.74,2
25389,4.74,-0.47,4.76,109.13,37.07,46.25,2
25414,5.64,-1.3,3.92,99.25,105.6,61.62,2
25439,8.12,-1.11,4.49,84.5,84.26,76.92,2
25464,9.07,-0.86,5.48,83.1,37.13,87.11,2
25488,7.69,-1.08,5.51,82.18,34.39,88.81,2
25514,8.78,-1.21,5.1,82.91,42.98,93.27,2
25538,10.46,-0.89,5.64,89.32,31.89,101.07,2
25563,9.36,-1.65,5.17,86.39,7.98,103.51,2
25588,9.22,-2.06,4.11,72.49,2.68,104.3,2
25613,12.8,-1.69,4.17,60.9,51.89,93.45,2
25638,11.31,-1.06,3.27,53.58,2.13,76.25,2
25662,9.49,-1.21,2.63,37.85,39.02,49.73,2
25688,8.77,-1.22,2.88,21.69,101.21,29.79,2
25712,9.57,-1.39,3.94,15.29,67.01,26.56,2
25737,8.24,-1.3,4.48,14.44,6.82,33.39,2
25762,7.08,-0.94,5.05,5.48,29.87,33.94,2
25786,8.8,-0.55,6.57,1.88,59.08,31.99,2
25812,10.58,-0.13,7.94,6.33,13.17,36.44,2
25836,11.1,0.89,8.69,5.66,7.74,30.83,2
25861,12.59,1.64,10.21,1.02,39.51,7.72,2
25885,14.24,1.37,12.69,8.83,8.04,-9.36,2
25910,13.63,1.03,14.69,27.37,-28.54,-17.04,2
25936,15.36,1.68,15.52,53.28,-3.85,-38.44,2
25960,16.11,1.47,15.34,76.21,-10.74,-74.11,2
25985,15.03,-0.33,14.87,93.22,-18.6,-103.32,2
26010,13.61,-0.81,14.34,106.21,-29.76,-120.45,2
26035,12.32,-1.34,13.31,124.13,-22.02,-137.89,2
26061,11.14,-1.86,11.97,142.43,-39.64,-147.95,2
26085,9.14,-2.54,9.83,157.3,-57.5,-154.29,2
26110,7.28,-3.03,7.54,163.16,-47.14,-161.49,2
26135,4.92,-3.41,5.01,164.44,-54.27,-159.66,2
26160,3.76,-3.07,1.5,158.4,-92.93,-144.96,2
26184,0.41,-2.57,-1.99,134.13,-135.98,-129.29,2
26210,-1.28,-1.76,-4.71,99.74,-125.92,-114.23,2
26235,-2.91,-1.43,-6.82,61.82,-137.56,-97.4,2
26260,-5.59,-1.57,-8.77,25.29,-130.49,-77.71,2
26285,-9.12,-2.18,-10.63,-9.59,-87.02,-50.7,2
26309,-9.92,-3.12,-12.73,-51.96,-67.44,-9.48,2
26334,-10.27,-3.74,-13.24,-116.47,-53.78,35.34,2
26360,-8.85,-5.1,-11.4,-185.07,-42.99,76.8,2
26384,-8.02,-6.87,-8.12,-243.79,-64.88,123.51,2
26409,-7.05,-8.64,-3.86,-283.67,-49.88,170.16,2
26434,-5.14,-10.32,1.43,-299.28,-36.28,218.14,2
26459,-1,-12.41,5.59,-298.06,-30.43,261.62,2
26484,4.45,-14.1,10.92,-289.7,23.29,289.12,2
26509,12.9,-15.58,16.22,-256.84,85.67,285.82,2
26535,18.6,-15.17,19.98,-267.08,-57.44,274.79,2
26559,18.6,-14.31,19.98,-214.22,-26.35,257.72,2
26585,18.6,-9.8,19.98,-132.39,-12.5,191.01,2
26609,18.6,-6.2,19.98,-51.78,9.81,75.1,2
26634,18.6,-4.54,19.98,2.61,7.5,-49.17,2
26660,18.6,-4.82,19.98,43.89,41.03,-148.38,2
26684,18.6,-6.8,19.98,89.19,36.95,-201.85,2
26709,18.6,-7.9,18.56,131.75,21.15,-223.01,2
26734,16.4,-8.51,15.17,167,10.18,-237.71,2
26759,13.63,-9.28,11.74,191.27,1.95,-250.27,2
26784,9.79,-10.14,8.76,204.56,-20.61,-254.05,2
26809,5.56,-10.55,5.74,206.27,-32.75,-248.68,2
26834,0.87,-9.55,2.7,201.21,-31.04,-233.56,2
26859,-2.12,-7.95,-0.47,191.75,-19.39,-210.15,2
26884,-5.06,-6.38,-4.22,175.35,-45.37,-177.89,2
26908,-8.97,-4.55,-7.67,138.1,-45.25,-138.2,2
26934,-10.1,-3.33,-9.98,97.55,-9.7,-89.72,2
26959,-8.69,-2.97,-12.24,56.63,-10.19,-36.79,2
26983,-7.78,-2.73,-14.08,-8.49,-18.54,5.52,2
27009,-5.47,-2.52,-14.41,-83.12,-31.96,37.17,2
27033,-4.49,-2.77,-12.03,-158.49,-32.5,59.79,2
27058,-3.7,-4.15,-7.96,-217.82,-53.05,85.89,2
27083,-4.46,-6.32,-3.49,-259.1,-50.61,130.22,2
27108,-0.18,-8.03,2.49,-275.19,-15.86,173.51,2
27133,5,-10.08,9.36,-270.07,-15.55,205.64,2
27158,11.53,-9.43,15.23,-269.1,-45.06,210.64,2
27183,18.6,-5.04,18.21,-214.28,17.19,163.33,2
27207,18.6,-2.23,19.37,-175.93,-4.7,83.81,2
27233,17.01,-0.72,19.15,-133.24,-0.49,29.49,2
27258,13.4,0.04,18.15,-91.23,-7.2,17.9,2
27282,11.28,0.82,16.73,-63.73,-30.61,24.24,2
27308,10.68,0.65,15.66,-36.11,-53.85,32.9,2
27332,11.44,0,14.13,-10.68,-49.09,31.13,2
27357,11.17,0.3,12.8,6.09,-21.89,9.91,2
27383,9.85,-0.38,12.56,21.45,-16.65,-9.54,2
27407,8.23,-0.86,11.6,39.26,-5.13,-18.56,2
27432,6.48,-0.53,9.63,50.96,4.14,-19.78,2
27456,5.66,0.13,8.18,52.43,9.14,-9.84,2
27481,4.94,-0.55,7.52,52.97,-0.8,8.33,2
27506,5.42,-1.33,7.3,57.24,5.91,24.91,2
27531,6.4,-1.27,6.65,60.11,6.95,28.08,2
27556,6.54,-0.27,5.83,62.3,18.11,24.67,2
27580,6.26,-0.92,5.58,67.3,33.23,25.1,2
27605,6.05,-2.02,5.52,74.93,38.71,35.71,2
27630,6.41,-2.01,5.37,79.26,21.7,50.52,2
27655,6.6,-1.06,4.97,81.15,15.36,55.52,2
27679,6.82,-1.3,4.63,82.97,17.8,56.19,2
27704,7.03,-1.6,5.19,82.06,10.79,60.46,2
27730,6.83,-1.52,5.42,84.62,17.19,62.66,2
27754,6.87,-1.41,5.21,84.93,29.63,60.16,2
27779,6.94,-1.67,5.11,81.88,34.87,59.97,2
27803,6.95,-1.85,5.47,75.23,29.02,64.06,2
27829,7.12,-2.38,5.72,71.21,26.28,70.89,2
27854,7.78,-2.49,6,71.76,20.61,75.77,2
27878,8.54,-2.06,5.98,70.6,16.64,72.35,2
27903,8.7,-1.74,5.95,71.39,20.73,61.44,2
27928,8.29,-1.7,5.5,73.89,22.74,51.74,2
27953,7.44,-1.56,4.13,73.1,27.62,48.08,2
27977,6.65,-1.23,3.18,65.54,38.29,47.47,2
28002,6.38,-1.56,2.83,51.15,48.96,51.62,2
28027,7.07,-1.79,3.4,36.15,34.81,62.53,2
28052,7.82,-1.59,4.15,23.95,2.01,75.58,2
28077,9.39,-1.43,5.35,13.4,16.95,75.7,2
28101,12.76,-1.11,7.34,6.82,13.96,64.18,2
28126,14.76,-0.84,10.7,9.19,-46.89,47.66,2
28152,14.77,-0.52,13.38,20.17,-17.32,18.63,2
28176,16.7,0.08,15.17,40.29,11.4,-17.89,2
28201,16.52,0.39,16.13,69.26,-26.96,-40.57,2
28226,15.47,-0.11,15.16,98.52,-29.39,-59.42,2
28251,15.83,-1.18,13.87,119.25,-29.09,-78.87,2
28275,15.38,-1.54,12.67,134.38,-26.83,-106.37,2
28301,14.14,-2.08,11.05,148.52,-22.02,-135.88,2
28326,11.92,-2.8,9.18,158.58,-23.05,-156.73,2
28351,9.33,-3.31,7.02,163.52,-22.26,-163.8,2
28376,7.23,-3.31,4.26,164.86,-40.49,-157.77,2
28400,4.75,-2.92,1.41,159.38,-58.78,-145.76,2
28426,2.97,-2.35,-1.51,148.1,-61.35,-133.62,2
28451,0.85,-1.88,-5.06,127.85,-60.06,-123.56,2
28475,0.15,-2.13,-8.51,96.57,-82.63,-108.13,2
28501,-2.33,-2.66,-11.91,43.83,-91.34,-86.31,2
28525,-2.59,-3.11,-13.11,-17.7,-67.32,-63.01,2
28550,-2.42,-3.56,-12.91,-81.35,-69.94,-40.09,2
28575,-2.35,-3.91,-11.76,-145.68,-93.66,-16.73,2
28600,-2.75,-4.17,-9.48,-202.14,-101.53,4.79,2
28625,-4.65,-5.01,-6.22,-246.84,-84.39,28.82,2
28650,-5.53,-6.13,-2.44,-273.49,-56.59,66.62,2
28675,-5.58,-6.37,1.62,-295.86,-55,107.9,2
28699,-6.43,-8.28,5.78,-311.11,-43.3,157.78,2
28725,-3.13,-9.78,11.07,-308.97,-18.97,220.76,2
28750,4.07,-11.7,18.18,-282.69,-43.05,275.34,2
28774,12.57,-13.06,19.98,-227.88,-63.78,298.02,2
28800,18.6,-10.84,19.98,-168.79,-27.32,272.11,2
28824,18.6,-5.89,19.98,-119.58,1.03,177.47,2
28850,18.6,-4.67,19.98,-71.35,-3.97,69.12,2
28874,18.6,-4.19,19.98,-20.8,22.37,-0.33,2
28899,18.6,-2.97,19.98,12.55,6.64,-49.23,2
28925,18.6,-2.59,19.98,43.52,-7.44,-97.59,2
28949,18.6,-4.07,19.79,81.33,-20.49,-142.04,2
28974,18.6,-5.84,18.05,124.32,-7.08,-181.91,2
28999,18.34,-7.24,14.56,166.88,-0.13,-218.99,2
29024,14.49,-9.29,10.63,195.35,2.25,-244.41,2
29049,11.01,-10.44,6.68,202.36,-10.55,-256.43,2
29074,6.54,-10.48,3.56,194.25,-35,-255.57,2
29099,1.35,-9.28,0.36,177.85,-39.33,-237.65,2
29124,-1.32,-7.72,-2.45,165.84,-26.22,-208.38,2
29149,-3.57,-6.35,-5.82,146.57,-37.02,-180.21,2
29173,-5.78,-5,-9,109.01,-35.8,-148.81,2
29199,-6.68,-4.37,-11.11,66.15,-25.92,-111,2
29224,-7.72,-3.6,-13.1,7.85,-30.43,-72.53,2
29248,-8.15,-2.7,-13.58,-65.87,-36.96,-36.49,2
29274,-8.5,-2.54,-11.77,-141.05,-33.66,0.95,2
29298,-7.87,-3.6,-8.2,-197.08,-42.93,44.12,2
29323,-6.34,-4.74,-3.81,-234.34,-40.98,91.25,2
29349,-2.49,-6.2,0.88,-260.07,-16.83,128.57,2
29373,1.66,-7.08,6.64,-275.99,-21.71,159.73,2
29398,7.07,-7.7,13.35,-278.49,12.13,167.17,2
29423,11.47,-6.35,18.83,-256.47,-17.32,158.75,2
29448,14.31,-3.85,19.98,-208.79,-20.61,137.05,2
29474,16.89,-1.09,19.98,-146.29,-16.96,98.45,2
29498,15.02,-0.19,19.98,-80.8,-47.93,63.75,2
29523,12.41,0.65,17.99,-35.74,-22.75,38.94,2
29548,11,1,14.47,-17.27,-27.81,27.05,2
29573,9.63,0.68,13.36,-17.57,-32.44,21.13,2
29597,7.86,0.13,13.29,-8.37,-40.19,19.55,2
29622,7.15,0.12,12.07,9.68,-23.85,19.85,2
29648,7.41,0.39,10.86,18.04,-12.93,15.89,2
29672,6.52,0.08,10.73,21.76,-13.17,10.52,2
29697,5,-0.29,10.87,31.08,-12.32,12.41,2
29721,4.55,-0.62,11.15,47.49,2.68,20.16,2
29747,4.67,-1.21,10.66,66.27,3.35,33.33,2
29771,4.87,-1.75,9.46,82.36,-1.53,44.91,2
29796,4.94,-1.75,8.14,92.12,8.59,49,2
29821,5.25,-1.69,7.42,98.65,26.58,52.66,2
29846,5.26,-2.19,7.25,103.77,25.61,60.77,2
29871,5.25,-2.6,6.68,109.25,22.01,71.86,2
29895,5.47,-2.61,5.82,110.54,28.47,79.06,2
29920,5.93,-2.64,4.74,105.78,25.12,80.83,2
29946,5.79,-3.05,4.31,93.95,25.85,85.52,2
29970,6.1,-3.07,4.79,84.8,26.58,92.35,2
29995,6.35,-3.27,5.39,81.15,25.67,96.01,2
30019,6.87,-3.45,5.5,81.15,29.14,98.14,2
30045,7.35,-3.17,5.11,79.68,32.19,99.67,2
30069,7.89,-2.62,5.16,73.1,32.5,94.67,2
30094,7.93,-2.79,5.26,67.18,30.91,86.31,2
30119,7.95,-3.12,5.5,64.86,21.7,88.2,2
30144,7.85,-2.85,5.39,63.1,25.18,88.51,2
30169,8.96,-2.52,5.34,57.67,38.11,80.4,2
30193,9.9,-2.7,5.22,49.93,22.19,73.33,2
30218,10.22,-2.23,4.86,39.32,-8.6,67.78,2
30244,9.89,-1.85,5.02,25.11,-9.7,56.5,2
30268,10.47,-1.52,5.88,15.84,-10.31,42.29,2
30293,9.94,-1.36,6.35,15.54,-25.31,31.07,2
30317,9.22,-1.06,6.24,17.24,-16.53,19.12,2
30343,8.45,-0.83,5.72,14.56,-14.39,7.41,2
30367,7.28,-0.68,5.39,6.69,-8.17,-1.43,2
30392,6.13,-0.6,5.45,0.54,-6.65,-2.34,2
30417,5.35,-0.62,5.46,-3.06,-8.36,3.39,2
30441,5.03,-0.52,5.18,-10.13,-8.3,9.97,2
30466,5.37,-0.98,6.25,-19.22,3.84,18.02,2
30490,7.46,-1.5,8.24,-23.18,3.23,29.3,2
30516,10.87,-1.54,10.94,-26.66,-23.3,36.31,2
30541,13.73,-0.72,14,-28.67,-19.39,19.85,2
30565,17.21,-0.45,17.46,-14.28,10.79,-12.83,2
30591,18.6,-1.3,19.93,26.02,-38.48,-45.33,2
30615,18.13,-2.03,19.98,75.41,-14.82,-88.01,2
30640,18.05,-2.66,18.52,124.5,20.36,-135.02,2
30665,16.23,-4,15.71,159.5,21.46,-169.72,2
30690,13.36,-5.16,12.82,180.78,9.14,-192.52,2
30715,9.61,-5.87,9.8,194.25,0.06,-204.66,2
30740,6.49,-6.13,6.85,201.81,-7.87,-202.83,2
30765,3.49,-5.92,3.65,202.73,-27.2,-187.34,2
30789,0.63,-4.87,0.18,194.68,-49.76,-162.4,2
30815,-1.58,-3.59,-3.71,173.4,-63.54,-136.67,2
30840,-2.13,-2.58,-7.16,139.99,-103.72,-106.79,2
30865,-4.54,-1.6,-10.23,90.9,-115,-79.96,2
30890,-5,-0.98,-11.63,40.47,-92.2,-52.28,2
30914,-5.11,-0.92,-12.47,-6.9,-78.6,-23.26,2
30939,-4.75,-1.17,-12.41,-58.73,-70.25,4.73,2
30964,-4.06,-1.84,-12,-112.15,-42.44,32.9,2
30989,-2.94,-3.09,-11.74,-175.07,-41.22,57.72,2
31014,-2.58,-5.93,-9.78,-243.73,-57.38,80.89,2
31039,-3.35,-9.14,-5.72,-303.91,-75.31,114,2
31064,-4.42,-12,0.08,-343.06,-77.5,165.28,2
31088,-1.38,-14.62,6,-358.24,-37.63,213.69,2
31114,2.52,-16.93,12.87,-360.31,-20.61,247.96,2
31139,10.43,-17.15,19.98,-347.2,-13.11,266.37,2
31164,17.92,-14.5,19.98,-287.88,-37.75,252.11,2
31189,18.6,-9.86,19.98,-215.5,-59.64,210.22,2
31214,18.6,-6.83,19.98,-116.11,-28.24,139.91,2
31239,18.6,-5.72,19.98,-20.68,40.67,54.85,2
31263,18.6,-6.27,19.98,34.99,29.08,-22.28,2
31289,18.6,-6.38,19.87,59.44,8.29,-82.16,2
31314,18.6,-6.52,18.14,83.58,10.24,-134.54,2
31338,18.6,-7.51,16.93,114.99,12.62,-179.84,2
31364,18.43,-8.98,15.14,151.27,11.03,-206.06,2
31388,15.76,-9.76,12.11,179.92,7.37,-219.48,2
31414,13.97,-9.38,9.2,189.19,4.14,-243.8,2
31439,9.72,-9.63,7.52,197,-4.94,-265.02,2
31463,5.29,-10.26,4.6,203.95,-26.16,-269.96,2
31489,-1.42,-9.5,0.45,195.78,-42.87,-254.72,2
31513,-7.1,-7.9,-3.54,172.42,-39.03,-213.56,2
31538,-9.97,-5.4,-6.77,136.27,-39.46,-155.57,2
31563,-11.49,-3.45,-9.25,100.47,-41.53,-98.5,2
31588,-10.88,-2.52,-10.8,62.55,-23.66,-43.81,2
31613,-9.49,-2.28,-11.35,10.6,-12.69,2.72,2
31638,-7.76,-1.45,-10.19,-50.38,-28.66,42.29,2
31663,-6.4,-1.28,-7.72,-101.6,-36.04,76.86,2
31687,-4.46,-1.87,-5.48,-143.91,-15.49,106.38,2
31713,-0.28,-3.41,-2.01,-178.85,11.15,128.27,2
31738,3.04,-4.58,1.03,-208.73,-10.67,150.7,2
31762,7.13,-4.85,4.68,-236.29,-10.8,158.81,2
31788,10.85,-4.05,8.78,-247.02,21.58,145.16,2
31812,13.09,-3.64,13.22,-244.58,-2.63,116.07,2
31837,12.82,-3.68,18.73,-207.27,-23.54,105.46,2
31863,11.95,-1.77,19.6,-140.93,-31.04,108.69,2
31887,12.94,-0.82,17.1,-89.52,-23.42,102.11,2
31913,15.49,-0.79,15.54,-56.41,-7.75,78.33,2
31937,15.73,-1.38,13.8,-32.09,-25.86,49,2
31962,13.05,-1.52,11.25,-21.96,-17.57,25.28,2
31987,12.36,-0.69,9.89,-28.24,-13.78,3.94,2
32012,10.33,-1.63,10.73,-37.7,-36.71,-6.31,2
32037,8.14,-2.6,11.92,-29.28,-47.26,-3.07,2
32061,7.93,-2.39,12.02,-0.81,-29.03,-4.48,2
32087,8.51,-1.63,11.25,25.23,-11.35,-18.44,2
32111,7.37,-1.9,9.76,40.23,-11.65,-30.64,2
32136,6.14,-2.42,8.66,49.26,-14.64,-30.88,2
32160,5.55,-2.29,8.27,56.63,-8.05,-23.2,2
32186,5.48,-1.47,8.08,66.33,-1.28,-18.38,2
32211,5.51,-1.05,7.41,76.51,-3.05,-14.72,2
32235,4.05,-1.11,6.53,85.78,-3.91,-6.25,2
32260,3.33,-1.11,5.63,95.17,8.29,7.9,2
32284,3.08,-0.8,4.66,100.72,30.85,21.99,2
32310,3.31,-1.09,4.07,100.96,38.84,39.79,2
32335,3.97,-1.29,3.68,100.05,31.21,59.55,2
32359,4.54,-0.67,2.86,97.3,10.12,76.74,2
32384,4.18,-0.64,2.43,87.61,30.3,78.88,2
32409,5.27,-1.06,2.82,75.96,45.48,82.41,2
32434,5.5,-2.82,3.67,65.9,19.26,96.8,2
32458,6.41,-3.44,4.9,62.55,28.04,114.48,2
32483,8.06,-2.63,5.57,64.19,25,119.3,2
32509,8.8,-2.37,5.89,69.5,26.15,113.14,2
32533,9.17,-3.39,6.74,73.46,34.39,110.34,2
32558,10.7,-3.72,7.19,76.15,42.01,109.61,2
32583,11.71,-3.42,7.19,79.74,27.19,101.31,2
32608,12.01,-3.48,6.87,79.01,20.36,84,2
32633,11.84,-3.05,6.6,71.88,19.75,63.02,2
32657,10.93,-2.66,6.47,66.76,16.52,44.24,2
32683,9.85,-2.25,6.32,65.11,20.42,31.68,2
32707,8.81,-2.07,6.31,63.28,17.07,26.38,2
32732,8.58,-1.75,5.87,61.27,17.8,23.94,2
32756,7.97,-1.56,5.1,59.07,9.26,21.5,2
32782,7.04,-1.49,4.21,53.58,11.7,18.82,2
32807,6.63,-1.33,3.44,44.74,17.68,18.39,2
32831,6.45,-1.09,2.93,31.02,27.01,16.19,2
32856,6.58,-1.32,2.73,14.01,26.95,15.22,2
32881,6.37,-1.68,3.47,-7.09,1.89,22.35,2
